name,repeat_status,stim_type,thisN,thisTrialN,thisRepN,button_resp.keys,button_resp.rt,image_loop.thisRepN,image_loop.thisTrialN,image_loop.thisN,image_loop.thisIndex,thisRow.t,notes,instructions.started,text_instructions.started,button_resp_inst.started,instructions.stopped,button_resp_inst.keys,button_resp_inst.rt,image_stim.started,image.started,button_resp.started,text.started,image.stopped,text.stopped,button_resp.stopped,image_stim.stopped,image_loop.button_resp.keys,image_loop.button_resp.rt,end.started,text_end.started,button_resp_end.started,end.stopped,button_resp_end.keys,button_resp_end.rt,participant,session,date,expName,psychopyVersion,frameRate,expStart,
,,,,,,,,,,,,,,0.013028749992372468,0.024316416995134205,0.024316416995134205,1.4191871249931864,2,1.3947541249945061,,,,,,,,,,,,,,,,,001,001,2025-05-30_14h40.21.230,N170,2024.2.4,None,2025-05-30 14h40.27.581570 -0400,
images/faces/male/Justin_Timberlake.jpg,original,face,0,0,0,None,,0,0,0,0,1.4712385829916457,,,,,,,,1.461753374998807,1.4712385829916457,1.4712385829916457,1.7178625829983503,1.7682499999937136,2.9142689580039587,3.0012011249928037,2.957881875001476,None,,,,,,,,001,001,2025-05-30_14h40.21.230,N170,2024.2.4,None,2025-05-30 14h40.27.581570 -0400,
images/faces/male/Tom_Hanks.jpg,original,face,1,1,0,None,,0,1,1,1,3.0012011249928037,,,,,,,,2.991711957991356,3.0012011249928037,3.0012011249928037,3.263076707997243,3.2942287079931702,4.094527583001764,4.213333583000349,4.124476666998817,None,,,,,,,,001,001,2025-05-30_14h40.21.230,N170,2024.2.4,None,2025-05-30 14h40.27.581570 -0400,
images/faces/female/Christina_Aguilera.jpg,original,face,2,2,0,None,,0,2,2,2,4.213333583000349,,,,,,,,4.204406499993638,4.213333583000349,4.213333583000349,4.417880124994554,4.515297707999707,5.593584542002645,5.7066219999978784,5.682891125004971,None,,,,,,,,001,001,2025-05-30_14h40.21.230,N170,2024.2.4,None,2025-05-30 14h40.27.581570 -0400,
images/objects/fullbucket.jpg,original,object,3,3,0,None,,0,3,3,3,5.7066219999978784,,,,,,,,5.695989667001413,5.7066219999978784,5.7066219999978784,5.98424991700449,6.00580841700139,6.984684166993247,7.0144787919998635,6.9959919579996495,None,,,,,,,,001,001,2025-05-30_14h40.21.230,N170,2024.2.4,None,2025-05-30 14h40.27.581570 -0400,
images/objects/APARKBENC.jpg,original,object,4,4,0,None,,0,4,4,4,7.0144787919998635,,,,,,,,7.003824874991551,7.0144787919998635,7.0144787919998635,7.295484500005841,7.319177416997263,8.342950167003437,8.360988707994693,8.343120249992353,None,,,,,,,,001,001,2025-05-30_14h40.21.230,N170,2024.2.4,None,2025-05-30 14h40.27.581570 -0400,
images/objects/Acarnivalgame.jpg,original,object,5,5,0,None,,0,5,5,5,8.360988707994693,,,,,,,,8.350400583003648,8.360988707994693,8.360988707994693,8.641339374997187,8.662440707994392,9.827573207992828,9.868851582999923,9.83848108300299,None,,,,,,,,001,001,2025-05-30_14h40.21.230,N170,2024.2.4,None,2025-05-30 14h40.27.581570 -0400,
images/faces/female/Carrie_Underwood.jpg,original,face,6,6,0,None,,0,6,6,6,9.868851582999923,,,,,,,,9.85880333300156,9.868851582999923,9.868851582999923,10.135688750000554,10.169060542000807,11.289579542004503,11.344647541991435,11.313488416999462,None,,,,,,,,001,001,2025-05-30_14h40.21.230,N170,2024.2.4,None,2025-05-30 14h40.27.581570 -0400,
images/faces/male/Jamie _Foxx.jpg,original,face,7,7,0,None,,0,7,7,7,11.344647541991435,,,,,,,,11.333660749995033,11.344647541991435,11.344647541991435,11.610910041999887,11.648696374992142,12.391816375005874,12.463835542002926,12.413666708001983,None,,,,,,,,001,001,2025-05-30_14h40.21.230,N170,2024.2.4,None,2025-05-30 14h40.27.581570 -0400,
images/faces/female/Adele.jpg,original,face,8,8,0,None,,0,8,8,8,12.463835542002926,,,,,,,,12.454594541995903,12.463835542002926,12.463835542002926,12.712475916996482,12.759723082999699,13.902664499997627,13.969079167000018,13.935893166999449,None,,,,,,,,001,001,2025-05-30_14h40.21.230,N170,2024.2.4,None,2025-05-30 14h40.27.581570 -0400,
images/faces/female/Alice_Walker.jpg,original,face,9,9,0,None,,0,9,9,9,13.969079167000018,,,,,,,,13.958492874997319,13.969079167000018,13.969079167000018,14.241228750004666,14.264673166995635,15.099968374997843,15.131650957991951,15.112157875002595,None,,,,,,,,001,001,2025-05-30_14h40.21.230,N170,2024.2.4,None,2025-05-30 14h40.27.581570 -0400,
images/objects/AHEELCUPS.jpg,original,object,10,10,0,None,,0,10,10,10,15.131650957991951,,,,,,,,15.1210143329954,15.131650957991951,15.131650957991951,15.409534082995378,15.430119541997556,16.330270666992874,16.359286624996457,16.341544875002,None,,,,,,,,001,001,2025-05-30_14h40.21.230,N170,2024.2.4,None,2025-05-30 14h40.27.581570 -0400,
images/objects/Atoyslide.jpg,original,object,11,11,0,None,,0,11,11,11,16.359286624996457,,,,,,,,16.349107999994885,16.359286624996457,16.359286624996457,16.64319033299398,16.655155792002915,17.658651167002972,17.68763862499327,17.658817374991486,None,,,,,,,,001,001,2025-05-30_14h40.21.230,N170,2024.2.4,None,2025-05-30 14h40.27.581570 -0400,
images/faces/female/Kelly_Clarkson.jpg,original,face,12,12,0,None,,0,12,12,12,17.68763862499327,,,,,,,,17.67803133299458,17.68763862499327,17.68763862499327,17.95551687499392,17.991360166997765,18.843936042001587,18.887968750001164,18.869021874997998,None,,,,,,,,001,001,2025-05-30_14h40.21.230,N170,2024.2.4,None,2025-05-30 14h40.27.581570 -0400,
images/objects/26370116.thl.jpg,original,object,13,13,0,None,,0,13,13,13,18.887968750001164,,,,,,,,18.877104582992615,18.887968750001164,18.887968750001164,19.165381166996667,19.189932875000522,19.995220666998648,20.02452729200013,20.006944833003217,None,,,,,,,,001,001,2025-05-30_14h40.21.230,N170,2024.2.4,None,2025-05-30 14h40.27.581570 -0400,
images/objects/ATIMECLO3.jpg,original,object,14,14,0,None,,0,14,14,14,20.02452729200013,,,,,,,,20.01392329200462,20.02452729200013,20.02452729200013,20.3111009580025,20.322679666991462,21.514586874996894,21.542650832998333,21.525808708000113,None,,,,,,,,001,001,2025-05-30_14h40.21.230,N170,2024.2.4,None,2025-05-30 14h40.27.581570 -0400,
images/objects/ASCREW24.jpg,original,object,15,15,0,None,,0,15,15,15,21.542650832998333,,,,,,,,21.531887000004645,21.542650832998333,21.542650832998333,21.82633366699156,21.838115791993914,22.693269124996732,22.71971466699324,22.703951417002827,None,,,,,,,,001,001,2025-05-30_14h40.21.230,N170,2024.2.4,None,2025-05-30 14h40.27.581570 -0400,
images/objects/23051010.thl.jpg,original,object,16,16,0,None,,0,16,16,16,22.71971466699324,,,,,,,,22.708848708003643,22.71971466699324,22.71971466699324,23.006425957995816,23.018551625005784,23.815059000000474,23.8319220830017,23.815253374996246,None,,,,,,,,001,001,2025-05-30_14h40.21.230,N170,2024.2.4,None,2025-05-30 14h40.27.581570 -0400,
images/objects/driedprune.jpg,original,object,17,17,0,None,,0,17,17,17,23.8319220830017,,,,,,,,23.822052792005707,23.8319220830017,23.8319220830017,24.114836708002258,24.124202457998763,25.028207791998284,25.08247316699999,25.040301332992385,None,,,,,,,,001,001,2025-05-30_14h40.21.230,N170,2024.2.4,None,2025-05-30 14h40.27.581570 -0400,
images/faces/male/Bryan_Moynihan.jpg,original,face,18,18,0,None,,0,18,18,18,25.08247316699999,,,,,,,,25.071978666994255,25.08247316699999,25.08247316699999,25.343784249998862,25.37936183299462,26.46391666699492,26.51787704200251,26.498514416991384,None,,,,,,,,001,001,2025-05-30_14h40.21.230,N170,2024.2.4,None,2025-05-30 14h40.27.581570 -0400,
images/objects/22849344.thl.jpg,original,object,19,19,0,None,,0,19,19,19,26.51787704200251,,,,,,,,26.50793233299919,26.51787704200251,26.51787704200251,26.799593042000197,26.823770167000475,27.55502712499583,27.58054224999796,27.564943082994432,None,,,,,,,,001,001,2025-05-30_14h40.21.230,N170,2024.2.4,None,2025-05-30 14h40.27.581570 -0400,
images/objects/swingset.jpg,original,object,20,20,0,None,,0,20,20,20,27.58054224999796,,,,,,,,27.57004204200348,27.58054224999796,27.58054224999796,27.862276542000473,27.88706545799505,29.091464791999897,29.108849708005437,29.09165249999205,None,,,,,,,,001,001,2025-05-30_14h40.21.230,N170,2024.2.4,None,2025-05-30 14h40.27.581570 -0400,
images/objects/Achildsplaype.jpg,original,object,21,21,0,None,,0,21,21,21,29.108849708005437,,,,,,,,29.098408374993596,29.108849708005437,29.108849708005437,29.395648292003898,29.407271167001454,30.644509374993504,30.71679641699302,30.644692457994097,None,,,,,,,,001,001,2025-05-30_14h40.21.230,N170,2024.2.4,None,2025-05-30 14h40.27.581570 -0400,
images/faces/male/Paulo_Coelho.jpg,original,face,22,22,0,None,,0,22,22,22,30.71679641699302,,,,,,,,30.708109041996067,30.71679641699302,30.71679641699302,30.94428154200432,31.012015874992358,31.733484666998265,31.81508341699373,31.791685791991767,None,,,,,,,,001,001,2025-05-30_14h40.21.230,N170,2024.2.4,None,2025-05-30 14h40.27.581570 -0400,
images/objects/26372390.thl.jpg,original,object,23,23,0,None,,0,23,23,23,31.81508341699373,,,,,,,,31.8042851670034,31.81508341699373,31.81508341699373,32.09888725000201,32.108165750003536,32.95356633300253,32.994759082997916,32.9656827919971,None,,,,,,,,001,001,2025-05-30_14h40.21.230,N170,2024.2.4,None,2025-05-30 14h40.27.581570 -0400,
images/faces/female/Bonnie_Wright.jpg,original,face,24,24,0,None,,0,24,24,24,32.994759082997916,,,,,,,,32.98448741699394,32.994759082997916,32.994759082997916,33.26385950000258,33.302020125003764,34.35173275000125,34.408968207993894,34.36338841699762,None,,,,,,,,001,001,2025-05-30_14h40.21.230,N170,2024.2.4,None,2025-05-30 14h40.27.581570 -0400,
images/faces/female/Mia_Hamm.jpg,original,face,25,25,0,None,,0,25,25,25,34.408968207993894,,,,,,,,34.39916324999649,34.408968207993894,34.408968207993894,34.658550666994415,34.708841707994,35.50729487500212,35.580944417000865,35.54985924999346,None,,,,,,,,001,001,2025-05-30_14h40.21.230,N170,2024.2.4,None,2025-05-30 14h40.27.581570 -0400,
images/faces/male/PSY.jpg,original,face,26,26,0,None,,0,26,26,26,35.580944417000865,,,,,,,,35.57044500000484,35.580944417000865,35.580944417000865,35.84690745799162,35.88334987500275,36.620240999996895,36.658272667002166,36.641303625001456,None,,,,,,,,001,001,2025-05-30_14h40.21.230,N170,2024.2.4,None,2025-05-30 14h40.27.581570 -0400,
images/objects/8027086.thl.jpg,original,object,27,27,0,None,,0,27,27,27,36.658272667002166,,,,,,,,36.64813433299423,36.658272667002166,36.658272667002166,36.940547457998036,36.96503379200294,38.080445208004676,38.09793995799555,38.08063066699833,None,,,,,,,,001,001,2025-05-30_14h40.21.230,N170,2024.2.4,None,2025-05-30 14h40.27.581570 -0400,
images/objects/8256348.thl.jpg,original,object,28,28,0,None,,0,28,28,28,38.09793995799555,,,,,,,,38.08723579200159,38.09793995799555,38.09793995799555,38.37680020800326,38.398950125003466,39.38115016699885,39.4077450420009,39.39118774999224,None,,,,,,,,001,001,2025-05-30_14h40.21.230,N170,2024.2.4,None,2025-05-30 14h40.27.581570 -0400,
images/objects/Atennisball2.jpg,original,object,29,29,0,None,,0,29,29,29,39.4077450420009,,,,,,,,39.39715529199748,39.4077450420009,39.4077450420009,39.69310062499426,39.70488808299706,40.639143624997814,40.66744279199338,40.65079812500335,None,,,,,,,,001,001,2025-05-30_14h40.21.230,N170,2024.2.4,None,2025-05-30 14h40.27.581570 -0400,
images/objects/mixer.jpg,original,object,30,30,0,None,,0,30,30,30,40.66744279199338,,,,,,,,40.65675983300025,40.66744279199338,40.66744279199338,40.956259250000585,40.96917204199417,41.75429133299622,41.857929417004925,41.754823791998206,None,,,,,,,,001,001,2025-05-30_14h40.21.230,N170,2024.2.4,None,2025-05-30 14h40.27.581570 -0400,
images/faces/male/Prince_Harry.jpg,original,face,31,31,0,None,,0,31,31,31,41.857929417004925,,,,,,,,41.84924049999972,41.857929417004925,41.857929417004925,42.05318354199699,42.156154750002315,42.87805549999757,42.995559167000465,42.968507416997454,None,,,,,,,,001,001,2025-05-30_14h40.21.230,N170,2024.2.4,None,2025-05-30 14h40.27.581570 -0400,
images/objects/Abasket108.jpg,original,object,32,32,0,None,,0,32,32,32,42.995559167000465,,,,,,,,42.98576012499689,42.995559167000465,42.995559167000465,43.26342962500348,43.2998324999935,44.508905833004974,44.54906929199933,44.533251625005505,None,,,,,,,,001,001,2025-05-30_14h40.21.230,N170,2024.2.4,None,2025-05-30 14h40.27.581570 -0400,
images/objects/26373735.thl.jpg,original,object,33,33,0,None,,0,33,33,33,44.54906929199933,,,,,,,,44.53937341699202,44.54906929199933,44.54906929199933,44.83038241699978,44.85341070800496,45.59845445799874,45.62705404199369,45.61107616699883,None,,,,,,,,001,001,2025-05-30_14h40.21.230,N170,2024.2.4,None,2025-05-30 14h40.27.581570 -0400,
images/objects/23025535.thl.jpg,original,object,34,34,0,None,,0,34,34,34,45.62705404199369,,,,,,,,45.616145457999664,45.62705404199369,45.62705404199369,45.90923420799663,45.93416254200565,46.76940304199525,46.7962708749983,46.780593041999964,None,,,,,,,,001,001,2025-05-30_14h40.21.230,N170,2024.2.4,None,2025-05-30 14h40.27.581570 -0400,
images/objects/A_flower.jpg,original,object,35,35,0,None,,0,35,35,35,46.7962708749983,,,,,,,,46.78643445800117,46.7962708749983,46.7962708749983,47.08188225000049,47.09270233300049,48.23847987499903,48.26718095799151,48.2389613330015,None,,,,,,,,001,001,2025-05-30_14h40.21.230,N170,2024.2.4,None,2025-05-30 14h40.27.581570 -0400,
images/faces/female/Katie_Ledecky.jpg,original,face,36,36,0,None,,0,36,36,36,48.26718095799151,,,,,,,,48.25668195799517,48.26718095799151,48.26718095799151,48.53221212499193,48.56118649999553,49.51526341699355,49.61890108299849,49.53749033299391,None,,,,,,,,001,001,2025-05-30_14h40.21.230,N170,2024.2.4,None,2025-05-30 14h40.27.581570 -0400,
images/faces/female/Kate_Middleton.jpg,original,face,37,37,0,2,0.777065832997323,0,37,37,37,49.61890108299849,,,,,,,,49.61029120799503,49.61890108299849,49.61890108299849,49.833922791993245,49.91826166700048,50.98695274999773,51.09716262499569,51.060667541998555,2,0.777065832997323,,,,,,,001,001,2025-05-30_14h40.21.230,N170,2024.2.4,None,2025-05-30 14h40.27.581570 -0400,
images/faces/female/Katie_Ledecky.jpg,repeat,face,38,38,0,2,0.5790585420036223,0,38,38,38,51.09716262499569,,,,,,,,51.08645950000209,51.09716262499569,51.09716262499569,51.36301508299948,51.39907549999771,52.44653416700021,52.49556204199325,52.47371550000389,2,0.5790585420036223,,,,,,,001,001,2025-05-30_14h40.21.230,N170,2024.2.4,None,2025-05-30 14h40.27.581570 -0400,
images/faces/male/Nicholas_Sparks.jpg,original,face,39,39,0,None,,0,39,39,39,52.49556204199325,,,,,,,,52.48534587500035,52.49556204199325,52.49556204199325,52.770991416997276,52.794367875001626,53.894797749991994,53.934518374997424,53.90599470799498,None,,,,,,,,001,001,2025-05-30_14h40.21.230,N170,2024.2.4,None,2025-05-30 14h40.27.581570 -0400,
images/faces/male/John_Goodenough.jpg,original,face,40,40,0,None,,0,40,40,40,53.934518374997424,,,,,,,,53.924407667000196,53.934518374997424,53.934518374997424,54.203383375002886,54.23381429200526,55.11317324999254,55.14397179200023,55.12505775000318,None,,,,,,,,001,001,2025-05-30_14h40.21.230,N170,2024.2.4,None,2025-05-30 14h40.27.581570 -0400,
images/objects/22826832.thl.jpg,original,object,41,41,0,None,,0,41,41,41,55.14397179200023,,,,,,,,55.134207416995196,55.14397179200023,55.14397179200023,55.422183582995785,55.44688520800264,56.180918832993484,56.207342541994876,56.19217995800136,None,,,,,,,,001,001,2025-05-30_14h40.21.230,N170,2024.2.4,None,2025-05-30 14h40.27.581570 -0400,
images/objects/8026084.thl.jpg,original,object,42,42,0,None,,0,42,42,42,56.207342541994876,,,,,,,,56.19736954200198,56.207342541994876,56.207342541994876,56.489890917000594,56.502193916996475,57.35366295800486,57.37034783299896,57.35383150000416,None,,,,,,,,001,001,2025-05-30_14h40.21.230,N170,2024.2.4,None,2025-05-30 14h40.27.581570 -0400,
images/objects/hairbarette.jpg,original,object,43,43,0,None,,0,43,43,43,57.37034783299896,,,,,,,,57.36079191700264,57.37034783299896,57.37034783299896,57.64959629200166,57.67435066700273,58.45112237500143,58.47975770800258,58.462207624994335,None,,,,,,,,001,001,2025-05-30_14h40.21.230,N170,2024.2.4,None,2025-05-30 14h40.27.581570 -0400,
images/objects/Atoyturtle.jpg,original,object,44,44,0,None,,0,44,44,44,58.47975770800258,,,,,,,,58.46971362500335,58.47975770800258,58.47975770800258,58.76313725000364,58.77402358299878,59.593943750005565,59.61662937499932,59.594149416996515,None,,,,,,,,001,001,2025-05-30_14h40.21.230,N170,2024.2.4,None,2025-05-30 14h40.27.581570 -0400,
images/faces/male/Rick_Riordan.jpg,original,face,45,45,0,None,,0,45,45,45,59.61662937499932,,,,,,,,59.60663712500536,59.61662937499932,59.61662937499932,59.88919170800364,59.91162820799218,60.650888207994285,60.682809707999695,60.66251191700576,None,,,,,,,,001,001,2025-05-30_14h40.21.230,N170,2024.2.4,None,2025-05-30 14h40.27.581570 -0400,
images/objects/bagelslicer.jpg,original,object,46,46,0,None,,0,46,46,46,60.682809707999695,,,,,,,,60.672273207994294,60.682809707999695,60.682809707999695,60.9606522499962,60.98566862499865,61.881835082996986,61.929310624997015,61.89327491700533,None,,,,,,,,001,001,2025-05-30_14h40.21.230,N170,2024.2.4,None,2025-05-30 14h40.27.581570 -0400,
images/faces/female/Paula_Hawkins.jpg,original,face,47,47,0,None,,0,47,47,47,61.929310624997015,,,,,,,,61.91946483300126,61.929310624997015,61.929310624997015,62.1941488750017,62.2308581249963,63.33334124999237,63.41667220799718,63.355124499998055,None,,,,,,,,001,001,2025-05-30_14h40.21.230,N170,2024.2.4,None,2025-05-30 14h40.27.581570 -0400,
images/faces/female/Laverne_Cox.jpg,original,face,48,48,0,None,,0,48,48,48,63.41667220799718,,,,,,,,63.40646091700182,63.41667220799718,63.41667220799718,63.6487802920019,63.714034457996604,64.76715179199527,64.85384399999748,64.82286270799523,None,,,,,,,,001,001,2025-05-30_14h40.21.230,N170,2024.2.4,None,2025-05-30 14h40.27.581570 -0400,
images/faces/male/Justin_Trudeau.jpg,original,face,49,49,0,None,,0,49,49,49,64.85384399999748,,,,,,,,64.84323204199609,64.85384399999748,64.85384399999748,65.12175575000583,65.15744195799925,66.11593641700165,66.14673570799641,66.12737483299861,None,,,,,,,,001,001,2025-05-30_14h40.21.230,N170,2024.2.4,None,2025-05-30 14h40.27.581570 -0400,
images/objects/ferrywheeltoy.jpg,original,object,50,50,0,None,,0,50,50,50,66.14673570799641,,,,,,,,66.13680804199248,66.14673570799641,66.14673570799641,66.43069966700568,66.4425573329936,67.4584040829941,67.48536079199403,67.4688407079957,None,,,,,,,,001,001,2025-05-30_14h40.21.230,N170,2024.2.4,None,2025-05-30 14h40.27.581570 -0400,
images/objects/pinecone02.jpg,original,object,51,51,0,None,,0,51,51,51,67.48536079199403,,,,,,,,67.4749168749986,67.48536079199403,67.48536079199403,67.77002695799456,67.78261412499705,68.52153191699472,68.54914745800488,68.53253695799503,None,,,,,,,,001,001,2025-05-30_14h40.21.230,N170,2024.2.4,None,2025-05-30 14h40.27.581570 -0400,
images/objects/ACOWBOYH3.jpg,original,object,52,52,0,None,,0,52,52,52,68.54914745800488,,,,,,,,68.53911179199349,68.54914745800488,68.54914745800488,68.83637162500236,68.8480617919995,69.87834291699983,69.90780045799329,69.87891687499359,None,,,,,,,,001,001,2025-05-30_14h40.21.230,N170,2024.2.4,None,2025-05-30 14h40.27.581570 -0400,
images/faces/female/Kelly_Clarkson.jpg,repeat,face,53,53,0,2,0.6984757499885745,0,53,53,53,69.90780045799329,,,,,,,,69.89814595799544,69.90780045799329,69.90780045799329,70.18276304200117,70.20566437499656,71.15179095799976,71.20483733300352,71.17535074999614,2,0.6984757499885745,,,,,,,001,001,2025-05-30_14h40.21.230,N170,2024.2.4,None,2025-05-30 14h40.27.581570 -0400,
images/faces/female/Rachel_Maddow.jpg,original,face,54,54,0,None,,0,54,54,54,71.20483733300352,,,,,,,,71.19406024999626,71.20483733300352,71.20483733300352,71.48060524999164,71.50409687499632,72.48832316699554,72.53575637500035,72.49972191700363,None,,,,,,,,001,001,2025-05-30_14h40.21.230,N170,2024.2.4,None,2025-05-30 14h40.27.581570 -0400,
images/faces/male/Dak_Prescott.jpg,original,face,55,55,0,None,,0,55,55,55,72.53575637500035,,,,,,,,72.52594024999416,72.53575637500035,72.53575637500035,72.79619891699986,72.83220212499145,73.81917899999826,73.8624023750017,73.84272483299719,None,,,,,,,,001,001,2025-05-30_14h40.21.230,N170,2024.2.4,None,2025-05-30 14h40.27.581570 -0400,
images/objects/26439913.thl.jpg,original,object,56,56,0,None,,0,56,56,56,73.8624023750017,,,,,,,,73.85154691699427,73.8624023750017,73.8624023750017,74.14667208299215,74.15827887499472,74.9586274579924,74.97545366699342,74.95879137500015,None,,,,,,,,001,001,2025-05-30_14h40.21.230,N170,2024.2.4,None,2025-05-30 14h40.27.581570 -0400,
images/objects/26423905.thl.jpg,original,object,57,57,0,None,,0,57,57,57,74.97545366699342,,,,,,,,74.9648237079964,74.97545366699342,74.97545366699342,75.25845162499172,75.2707788330008,76.19411962499726,76.21100108299288,76.19451533300162,None,,,,,,,,001,001,2025-05-30_14h40.21.230,N170,2024.2.4,None,2025-05-30 14h40.27.581570 -0400,
images/faces/female/Veronica_Roth.jpg,original,face,58,58,0,None,,0,58,58,58,76.21100108299288,,,,,,,,76.20240916700277,76.21100108299288,76.21100108299288,76.49110800000199,76.51247954199789,77.39834458299447,77.44743308299803,77.40943962500023,None,,,,,,,,001,001,2025-05-30_14h40.21.230,N170,2024.2.4,None,2025-05-30 14h40.27.581570 -0400,
images/faces/female/Oprah_Winfrey.jpg,original,face,59,59,0,None,,0,59,59,59,77.44743308299803,,,,,,,,77.4370646669995,77.44743308299803,77.44743308299803,77.70383975000004,77.75259345800441,78.51464399999531,78.57002474999172,78.54992037499323,None,,,,,,,,001,001,2025-05-30_14h40.21.230,N170,2024.2.4,None,2025-05-30 14h40.27.581570 -0400,
images/objects/AALARMSY6.jpg,original,object,60,60,0,None,,0,60,60,60,78.57002474999172,,,,,,,,78.55945225000323,78.57002474999172,78.57002474999172,78.84796204199665,78.872557374998,80.06869316699158,80.11117083299905,80.07993904199975,None,,,,,,,,001,001,2025-05-30_14h40.21.230,N170,2024.2.4,None,2025-05-30 14h40.27.581570 -0400,
images/objects/Acartofgroce3.jpg,original,object,61,61,0,None,,0,61,61,61,80.11117083299905,,,,,,,,80.10137283299991,80.11117083299905,80.11117083299905,80.37645312500536,80.4126777920028,81.14645724999718,81.18656154199562,81.16969566700573,None,,,,,,,,001,001,2025-05-30_14h40.21.230,N170,2024.2.4,None,2025-05-30 14h40.27.581570 -0400,
images/objects/ATOILROL2.jpg,original,object,62,62,0,None,,0,62,62,62,81.18656154199562,,,,,,,,81.17659387500316,81.18656154199562,81.18656154199562,81.46906929199758,81.4786138329946,82.6752044169989,82.70931487499911,82.67542145799962,None,,,,,,,,001,001,2025-05-30_14h40.21.230,N170,2024.2.4,None,2025-05-30 14h40.27.581570 -0400,
images/faces/male/David_Guetta.jpg,original,face,63,63,0,None,,0,63,63,63,82.70931487499911,,,,,,,,82.69793712500541,82.70931487499911,82.70931487499911,82.97919895799714,83.01471833299729,83.73401637500501,83.76534241699846,83.7450797920028,None,,,,,,,,001,001,2025-05-30_14h40.21.230,N170,2024.2.4,None,2025-05-30 14h40.27.581570 -0400,
images/objects/hottub.jpg,original,object,64,64,0,None,,0,64,64,64,83.76534241699846,,,,,,,,83.7545567079942,83.76534241699846,83.76534241699846,84.04557970799215,84.06924183299998,84.93687133300409,84.96540329199343,84.94866954200552,None,,,,,,,,001,001,2025-05-30_14h40.21.230,N170,2024.2.4,None,2025-05-30 14h40.27.581570 -0400,
images/objects/Ascarf7.jpg,original,object,65,65,0,None,,0,65,65,65,84.96540329199343,,,,,,,,84.95536133299174,84.96540329199343,84.96540329199343,85.25164375000168,85.2635067079973,86.20429329200124,86.24526016699383,86.21648737500072,None,,,,,,,,001,001,2025-05-30_14h40.21.230,N170,2024.2.4,None,2025-05-30 14h40.27.581570 -0400,
images/faces/male/Eddie_Murphy.jpg,original,face,66,66,0,None,,0,66,66,66,86.24526016699383,,,,,,,,86.23467299999902,86.24526016699383,86.24526016699383,86.51554245800071,86.5400002499955,87.63911020799424,87.68361662499956,87.66271224999218,None,,,,,,,,001,001,2025-05-30_14h40.21.230,N170,2024.2.4,None,2025-05-30 14h40.27.581570 -0400,
images/objects/Aboardgame6.jpg,original,object,67,67,0,None,,0,67,67,67,87.68361662499956,,,,,,,,87.67292233300395,87.68361662499956,87.68361662499956,87.96032425000158,87.9840414999926,88.99773699999787,89.03547787500429,89.02015991699591,None,,,,,,,,001,001,2025-05-30_14h40.21.230,N170,2024.2.4,None,2025-05-30 14h40.27.581570 -0400,
images/objects/26424784.thl.jpg,original,object,68,68,0,None,,0,68,68,68,89.03547787500429,,,,,,,,89.02555820799898,89.03547787500429,89.03547787500429,89.32477795799787,89.3363623329933,90.33390874999168,90.41387995799596,90.33412058299291,None,,,,,,,,001,001,2025-05-30_14h40.21.230,N170,2024.2.4,None,2025-05-30 14h40.27.581570 -0400,
images/faces/male/Trevor_Noah.jpg,original,face,69,69,0,None,,0,69,69,69,90.41387995799596,,,,,,,,90.40523708300316,90.41387995799596,90.41387995799596,90.63078491699707,90.71062549999624,91.859992083002,91.95167662500171,91.92631308299315,None,,,,,,,,001,001,2025-05-30_14h40.21.230,N170,2024.2.4,None,2025-05-30 14h40.27.581570 -0400,
images/objects/26432217.thl.jpg,original,object,70,70,0,None,,0,70,70,70,91.95167662500171,,,,,,,,91.9410189170012,91.95167662500171,91.95167662500171,92.22737554200285,92.25157179200323,93.45885387499584,93.53206045800471,93.47038054199948,None,,,,,,,,001,001,2025-05-30_14h40.21.230,N170,2024.2.4,None,2025-05-30 14h40.27.581570 -0400,
images/faces/female/Demi_Lovato.jpg,original,face,71,71,0,None,,0,71,71,71,93.53206045800471,,,,,,,,93.52264608300175,93.53206045800471,93.53206045800471,93.76853266700346,93.82833116699476,95.00122658300097,95.13982783300162,95.05710649999673,None,,,,,,,,001,001,2025-05-30_14h40.21.230,N170,2024.2.4,None,2025-05-30 14h40.27.581570 -0400,
images/faces/female/Lorde.jpg,original,face,72,72,0,None,,0,72,72,72,95.13982783300162,,,,,,,,95.13115579199803,95.13982783300162,95.13982783300162,95.35024825000437,95.43385200000193,96.3802457080019,96.48776312499831,96.46269991699955,None,,,,,,,,001,001,2025-05-30_14h40.21.230,N170,2024.2.4,None,2025-05-30 14h40.27.581570 -0400,
images/objects/Apaintroller2.jpg,original,object,73,73,0,None,,0,73,73,73,96.48776312499831,,,,,,,,96.47793487500167,96.48776312499831,96.48776312499831,96.75584037500084,96.78843558300287,97.87465100000554,97.97873312499723,97.88652166699467,None,,,,,,,,001,001,2025-05-30_14h40.21.230,N170,2024.2.4,None,2025-05-30 14h40.27.581570 -0400,
images/faces/female/Queen_Elizabeth.jpg,original,face,74,74,0,None,,0,74,74,74,97.97873312499723,,,,,,,,97.97012549999636,97.97873312499723,97.97873312499723,98.17928466699959,98.277053333004,99.24876491699251,99.37038329200004,99.34270291699795,None,,,,,,,,001,001,2025-05-30_14h40.21.230,N170,2024.2.4,None,2025-05-30 14h40.27.581570 -0400,
images/objects/26466344.thl.jpg,original,object,75,75,0,None,,0,75,75,75,99.37038329200004,,,,,,,,99.35967529199843,99.37038329200004,99.37038329200004,99.64093862500158,99.67676029200084,100.51132529199822,100.570854916994,100.5330312080041,None,,,,,,,,001,001,2025-05-30_14h40.21.230,N170,2024.2.4,None,2025-05-30 14h40.27.581570 -0400,
images/faces/male/Tom_Hanks.jpg,repeat,face,76,76,0,None,,0,76,76,76,100.570854916994,,,,,,,,100.56049812499259,100.570854916994,100.570854916994,100.82947300000524,100.8771544170013,101.73424366700056,101.78739675000543,101.75565070800076,None,,,,,,,,001,001,2025-05-30_14h40.21.230,N170,2024.2.4,None,2025-05-30 14h40.27.581570 -0400,
images/faces/female/Sonya_Sotomayor.jpg,original,face,77,77,0,2,0.7525817910063779,0,77,77,77,101.78739675000543,,,,,,,,101.77701212499232,101.78739675000543,101.78739675000543,102.05541204199835,102.08895033299632,103.27964254199469,103.32807304199378,103.29937162500573,2,0.7525817910063779,,,,,,,001,001,2025-05-30_14h40.21.230,N170,2024.2.4,None,2025-05-30 14h40.27.581570 -0400,
images/faces/female/Margot_Robbie.jpg,original,face,78,78,0,None,,0,78,78,78,103.32807304199378,,,,,,,,103.3174313329946,103.32807304199378,103.32807304199378,103.59515320799255,103.62779883299663,104.35200233300566,104.39895499999693,104.37257637499715,None,,,,,,,,001,001,2025-05-30_14h40.21.230,N170,2024.2.4,None,2025-05-30 14h40.27.581570 -0400,
images/faces/female/Meghan_Rapinoe.jpg,original,face,79,79,0,None,,0,79,79,79,104.39895499999693,,,,,,,,104.38820987500367,104.39895499999693,104.39895499999693,104.67159308299597,104.6956366670056,105.729734499997,105.81476262499928,105.74166491700453,None,,,,,,,,001,001,2025-05-30_14h40.21.230,N170,2024.2.4,None,2025-05-30 14h40.27.581570 -0400,
images/faces/female/Mary_Kate_Olsen.jpg,original,face,80,80,0,None,,0,80,80,80,105.81476262499928,,,,,,,,105.80610120799975,105.81476262499928,105.81476262499928,106.04105499999423,106.10836141700565,106.93553750000137,107.01621012500254,106.99210874999699,None,,,,,,,,001,001,2025-05-30_14h40.21.230,N170,2024.2.4,None,2025-05-30 14h40.27.581570 -0400,
images/objects/ARASPBER2.jpg,original,object,81,81,0,None,,0,81,81,81,107.01621012500254,,,,,,,,107.00616029200319,107.01621012500254,107.01621012500254,107.29462904199318,107.31911812500039,108.50476991699543,108.59217200000421,108.50497624999844,None,,,,,,,,001,001,2025-05-30_14h40.21.230,N170,2024.2.4,None,2025-05-30 14h40.27.581570 -0400,
images/faces/male/Mark_Zuckerberg.jpg,original,face,82,82,0,None,,0,82,82,82,108.59217200000421,,,,,,,,108.58364629199787,108.59217200000421,108.59217200000421,108.80079162499169,108.8893353750027,109.6814000000013,109.79709087499941,109.76108391699381,None,,,,,,,,001,001,2025-05-30_14h40.21.230,N170,2024.2.4,None,2025-05-30 14h40.27.581570 -0400,
images/faces/male/George_Clooney.jpg,original,face,83,83,0,None,,0,83,83,83,109.79709087499941,,,,,,,,109.78749049999169,109.79709087499941,109.79709087499941,110.05970949999755,110.0956230830052,110.95024416700471,111.00407916700351,110.975147249992,None,,,,,,,,001,001,2025-05-30_14h40.21.230,N170,2024.2.4,None,2025-05-30 14h40.27.581570 -0400,
images/faces/female/Andrea_Russet.jpg,original,face,84,84,0,None,,0,84,84,84,111.00407916700351,,,,,,,,110.99352387500403,111.00407916700351,111.00407916700351,111.27496520799468,111.29886066699692,112.35996545800299,112.40687624999555,112.37876554200193,None,,,,,,,,001,001,2025-05-30_14h40.21.230,N170,2024.2.4,None,2025-05-30 14h40.27.581570 -0400,
images/faces/female/Iggy_Azalea.jpg,original,face,85,85,0,None,,0,85,85,85,112.40687624999555,,,,,,,,112.39621370799432,112.40687624999555,112.40687624999555,112.67154070800461,112.70247525000013,113.68023416699725,113.75306245799584,113.70491108299757,None,,,,,,,,001,001,2025-05-30_14h40.21.230,N170,2024.2.4,None,2025-05-30 14h40.27.581570 -0400,
images/faces/male/Nick_Jonas.jpg,original,face,86,86,0,None,,0,86,86,86,113.75306245799584,,,,,,,,113.74343720800243,113.75306245799584,113.75306245799584,114.0027032920043,114.05074212499312,115.14747237499978,115.25893412499863,115.18331308300549,None,,,,,,,,001,001,2025-05-30_14h40.21.230,N170,2024.2.4,None,2025-05-30 14h40.27.581570 -0400,
images/faces/female/Hillary_Clinton.jpg,original,face,87,87,0,None,,0,87,87,87,115.25893412499863,,,,,,,,115.25032208299672,115.25893412499863,115.25893412499863,115.48324200000206,115.56004579199362,116.6087208329991,116.71163316699676,116.67843787500169,None,,,,,,,,001,001,2025-05-30_14h40.21.230,N170,2024.2.4,None,2025-05-30 14h40.27.581570 -0400,
images/faces/female/Gwen_Stefani.jpg,original,face,88,88,0,None,,0,88,88,88,116.71163316699676,,,,,,,,116.7009826249996,116.71163316699676,116.71163316699676,116.97730283299461,117.01445512499777,117.95699883300404,117.99736004200531,117.9787616669928,None,,,,,,,,001,001,2025-05-30_14h40.21.230,N170,2024.2.4,None,2025-05-30 14h40.27.581570 -0400,
images/objects/hurdle.jpg,original,object,89,89,0,None,,0,89,89,89,117.99736004200531,,,,,,,,117.98729995799658,117.99736004200531,117.99736004200531,118.27429354199558,118.29935362499964,119.40699254200445,119.43220304200076,119.41763433300366,None,,,,,,,,001,001,2025-05-30_14h40.21.230,N170,2024.2.4,None,2025-05-30 14h40.27.581570 -0400,
images/objects/26379612.thl.jpg,original,object,90,90,0,None,,0,90,90,90,119.43220304200076,,,,,,,,119.42186754199793,119.43220304200076,119.43220304200076,119.71389899999485,119.73796216699702,120.46342874999391,120.52789679200214,120.47455854200234,None,,,,,,,,001,001,2025-05-30_14h40.21.230,N170,2024.2.4,None,2025-05-30 14h40.27.581570 -0400,
images/faces/female/Addison_Rae.jpg,original,face,91,91,0,2,0.6754365419910755,0,91,91,91,120.52789679200214,,,,,,,,120.5175278329989,120.52789679200214,120.52789679200214,120.7730835830007,120.82865191699238,121.81082349999633,121.87565604200063,121.8539955419983,2,0.6754365419910755,,,,,,,001,001,2025-05-30_14h40.21.230,N170,2024.2.4,None,2025-05-30 14h40.27.581570 -0400,
images/objects/golf-ball.JPG,original,object,92,92,0,None,,0,92,92,92,121.87565604200063,,,,,,,,121.8649027079955,121.87565604200063,121.87565604200063,122.158497832992,122.16979204199743,123.35454841700266,123.38376558299933,123.36672570799419,None,,,,,,,,001,001,2025-05-30_14h40.21.230,N170,2024.2.4,None,2025-05-30 14h40.27.581570 -0400,
images/objects/ACOCONUT2.jpg,original,object,93,93,0,None,,0,93,93,93,123.38376558299933,,,,,,,,123.3742203330039,123.38376558299933,123.38376558299933,123.66467254199961,123.68906179199985,124.48209387500538,124.51123799999186,124.49287545800325,None,,,,,,,,001,001,2025-05-30_14h40.21.230,N170,2024.2.4,None,2025-05-30 14h40.27.581570 -0400,
images/objects/ACUTBOAR2.jpg,original,object,94,94,0,None,,0,94,94,94,124.51123799999186,,,,,,,,124.50066037499346,124.51123799999186,124.51123799999186,124.78636050000205,124.80552049999824,125.56732750000083,125.59734508299152,125.57915295800194,None,,,,,,,,001,001,2025-05-30_14h40.21.230,N170,2024.2.4,None,2025-05-30 14h40.27.581570 -0400,
images/objects/driedprune.jpg,repeat,object,95,95,0,2,0.5615661250049016,0,95,95,95,125.59734508299152,,,,,,,,125.58665766699414,125.59734508299152,125.59734508299152,125.8829291669972,125.89426112499496,126.81725599999481,126.84571383299772,126.81745600000431,2,0.5615661250049016,,,,,,,001,001,2025-05-30_14h40.21.230,N170,2024.2.4,None,2025-05-30 14h40.27.581570 -0400,
images/faces/female/Alicia_Keys.jpg,original,face,96,96,0,None,,0,96,96,96,126.84571383299772,,,,,,,,126.83514391699282,126.84571383299772,126.84571383299772,127.11830074999307,127.14063125000393,128.06663699999626,128.1061007919925,128.07824679199257,None,,,,,,,,001,001,2025-05-30_14h40.21.230,N170,2024.2.4,None,2025-05-30 14h40.27.581570 -0400,
images/faces/male/David_Guetta.jpg,repeat,face,97,97,0,2,0.5831508749979548,0,97,97,97,128.1061007919925,,,,,,,,128.0962126670056,128.1061007919925,128.1061007919925,128.38103291699372,128.40513625000312,129.40803145799146,129.45009512499382,129.4193445419951,2,0.5831508749979548,,,,,,,001,001,2025-05-30_14h40.21.230,N170,2024.2.4,None,2025-05-30 14h40.27.581570 -0400,
images/faces/male/Benedict_Cumberbatch.jpg,original,face,98,98,0,None,,0,98,98,98,129.45009512499382,,,,,,,,129.43912662500225,129.45009512499382,129.45009512499382,129.7172051670059,129.754390874994,130.4974871250015,130.54049087499152,130.52126216699253,None,,,,,,,,001,001,2025-05-30_14h40.21.230,N170,2024.2.4,None,2025-05-30 14h40.27.581570 -0400,
images/objects/clawhairclips.jpg,original,object,99,99,0,None,,0,99,99,99,130.54049087499152,,,,,,,,130.53057758300565,130.54049087499152,130.54049087499152,130.81881883299502,130.84370075000334,131.6172150420025,131.65875929199683,131.62937729200348,None,,,,,,,,001,001,2025-05-30_14h40.21.230,N170,2024.2.4,None,2025-05-30 14h40.27.581570 -0400,
images/faces/female/Julianne_Moore.jpg,original,face,100,100,0,None,,0,100,100,100,131.65875929199683,,,,,,,,131.64825941699382,131.65875929199683,131.65875929199683,131.93267891700089,131.95779104200483,132.9258473749942,132.95719470799668,132.93783433300268,None,,,,,,,,001,001,2025-05-30_14h40.21.230,N170,2024.2.4,None,2025-05-30 14h40.27.581570 -0400,
images/objects/Chevypickup.jpg,original,object,101,101,0,None,,0,101,101,101,132.95719470799668,,,,,,,,132.94730987500225,132.95719470799668,132.95719470799668,133.23506300000008,133.25908062499366,134.15923666699382,134.18650245800382,134.16942295800254,None,,,,,,,,001,001,2025-05-30_14h40.21.230,N170,2024.2.4,None,2025-05-30 14h40.27.581570 -0400,
images/objects/Heatpad.jpg,original,object,102,102,0,None,,0,102,102,102,134.18650245800382,,,,,,,,134.1759535829915,134.18650245800382,134.18650245800382,134.46833366699866,134.49232220799604,135.4821591249929,135.55803649999143,135.49321808299283,None,,,,,,,,001,001,2025-05-30_14h40.21.230,N170,2024.2.4,None,2025-05-30 14h40.27.581570 -0400,
images/faces/male/Doug_McMillon.jpg,original,face,103,103,0,None,,0,103,103,103,135.55803649999143,,,,,,,,135.54932154199923,135.55803649999143,135.55803649999143,135.78663554199738,135.8587920830032,136.8745789579989,136.9671953329962,136.94009466699208,None,,,,,,,,001,001,2025-05-30_14h40.21.230,N170,2024.2.4,None,2025-05-30 14h40.27.581570 -0400,
images/faces/male/Connor_McGregor.jpg,original,face,104,104,0,None,,0,104,104,104,136.9671953329962,,,,,,,,136.95661024999572,136.9671953329962,136.9671953329962,137.24160758299695,137.26485716699972,138.18255504200351,138.22064862499246,138.19415962499625,None,,,,,,,,001,001,2025-05-30_14h40.21.230,N170,2024.2.4,None,2025-05-30 14h40.27.581570 -0400,
images/objects/22883664.thl.jpg,original,object,105,105,0,None,,0,105,105,105,138.22064862499246,,,,,,,,138.21050304199161,138.22064862499246,138.22064862499246,138.49086145800538,138.52776279200043,139.24049574999663,139.29489129199646,139.26455904199975,None,,,,,,,,001,001,2025-05-30_14h40.21.230,N170,2024.2.4,None,2025-05-30 14h40.27.581570 -0400,
images/faces/female/Rihanna.jpg,original,face,106,106,0,None,,0,106,106,106,139.29489129199646,,,,,,,,139.2842840420053,139.29489129199646,139.29489129199646,139.5591246249969,139.59023608299321,140.34861320799973,140.38543320799363,140.37181191699347,None,,,,,,,,001,001,2025-05-30_14h40.21.230,N170,2024.2.4,None,2025-05-30 14h40.27.581570 -0400,
images/objects/Aallterrain10.jpg,original,object,107,107,0,None,,0,107,107,107,140.38543320799363,,,,,,,,140.3765650419955,140.38543320799363,140.38543320799363,140.67297191699618,140.68564179199166,141.7494502920017,141.83754749999207,141.74998074999894,None,,,,,,,,001,001,2025-05-30_14h40.21.230,N170,2024.2.4,None,2025-05-30 14h40.27.581570 -0400,
images/faces/male/Jay_Leno.jpg,original,face,108,108,0,None,,0,108,108,108,141.83754749999207,,,,,,,,141.828835332999,141.83754749999207,141.83754749999207,142.0494495419989,142.13500358299643,143.00573137500032,143.15499149999232,143.08775474999857,None,,,,,,,,001,001,2025-05-30_14h40.21.230,N170,2024.2.4,None,2025-05-30 14h40.27.581570 -0400,
images/faces/female/Bethenny_Frankel.jpg,original,face,109,109,0,None,,0,109,109,109,143.15499149999232,,,,,,,,143.14629854199302,143.15499149999232,143.15499149999232,143.38532658299664,143.4470529579994,144.4352154579974,144.51337995799258,144.4904008750018,None,,,,,,,,001,001,2025-05-30_14h40.21.230,N170,2024.2.4,None,2025-05-30 14h40.27.581570 -0400,
images/objects/8253370.thl.jpg,original,object,110,110,0,None,,0,110,110,110,144.51337995799258,,,,,,,,144.50203404200147,144.51337995799258,144.51337995799258,144.78456025000196,144.80947983299848,145.7999792920018,145.8299652919959,145.81196287499915,None,,,,,,,,001,001,2025-05-30_14h40.21.230,N170,2024.2.4,None,2025-05-30 14h40.27.581570 -0400,
images/objects/ACURLRIB2.jpg,original,object,111,111,0,None,,0,111,111,111,145.8299652919959,,,,,,,,145.81932679199963,145.8299652919959,145.8299652919959,146.11381441699632,146.12474920800014,147.33856170800573,147.42455154200434,147.33886466699187,None,,,,,,,,001,001,2025-05-30_14h40.21.230,N170,2024.2.4,None,2025-05-30 14h40.27.581570 -0400,
images/faces/male/Nathan_Chen.jpg,original,face,112,112,0,None,,0,112,112,112,147.42455154200434,,,,,,,,147.41645312499895,147.42455154200434,147.42455154200434,147.63861354200344,147.7232762079948,148.8253686669923,148.94503337499918,148.90299862499523,None,,,,,,,,001,001,2025-05-30_14h40.21.230,N170,2024.2.4,None,2025-05-30 14h40.27.581570 -0400,
images/faces/male/Jim_Gaffigan.jpg,original,face,113,113,0,None,,0,113,113,113,148.94503337499918,,,,,,,,148.9352114170033,148.94503337499918,148.94503337499918,149.20028287499736,149.2470017500018,150.3230651250051,150.37815150000097,150.35734333300206,None,,,,,,,,001,001,2025-05-30_14h40.21.230,N170,2024.2.4,None,2025-05-30 14h40.27.581570 -0400,
images/objects/moto.jpg,original,object,114,114,0,None,,0,114,114,114,150.37815150000097,,,,,,,,150.36741049999546,150.37815150000097,150.37815150000097,150.6583079169941,150.68149216700112,151.83381595800165,151.85893149999902,151.83399954199558,None,,,,,,,,001,001,2025-05-30_14h40.21.230,N170,2024.2.4,None,2025-05-30 14h40.27.581570 -0400,
images/faces/male/Conan_O_Brien.jpg,original,face,115,115,0,None,,0,115,115,115,151.85893149999902,,,,,,,,151.84832175000338,151.85893149999902,151.85893149999902,152.1328891669982,152.15292154200142,152.94177570799366,152.97271091700532,152.95301537499472,None,,,,,,,,001,001,2025-05-30_14h40.21.230,N170,2024.2.4,None,2025-05-30 14h40.27.581570 -0400,
images/objects/ARATTLE.jpg,original,object,116,116,0,None,,0,116,116,116,152.97271091700532,,,,,,,,152.96201679199294,152.97271091700532,152.97271091700532,153.2516028329992,153.27262854199216,154.44403637500363,154.48744899999292,154.4563343750051,None,,,,,,,,001,001,2025-05-30_14h40.21.230,N170,2024.2.4,None,2025-05-30 14h40.27.581570 -0400,
images/faces/female/Maggie_Smith.jpg,original,face,117,117,0,None,,0,117,117,117,154.48744899999292,,,,,,,,154.47694945799594,154.48744899999292,154.48744899999292,154.74939345799794,154.7949425830011,155.5877586669958,155.64128895799513,155.62200579199998,None,,,,,,,,001,001,2025-05-30_14h40.21.230,N170,2024.2.4,None,2025-05-30 14h40.27.581570 -0400,
images/objects/ANWSPAPER.jpg,original,object,118,118,0,None,,0,118,118,118,155.64128895799513,,,,,,,,155.63063849999162,155.64128895799513,155.64128895799513,155.92382712499239,155.93513395800255,156.91380437499902,156.94470537500456,156.91399733300204,None,,,,,,,,001,001,2025-05-30_14h40.21.230,N170,2024.2.4,None,2025-05-30 14h40.27.581570 -0400,
images/faces/male/Snoop_Dogg.jpg,original,face,119,119,0,None,,0,119,119,119,156.94470537500456,,,,,,,,156.93459049999365,156.94470537500456,156.94470537500456,157.21001075000095,157.24605800000427,158.27106079200166,158.3132275829994,158.29236545799358,None,,,,,,,,001,001,2025-05-30_14h40.21.230,N170,2024.2.4,None,2025-05-30 14h40.27.581570 -0400,
images/objects/ABACKHOE2.jpg,original,object,120,120,0,None,,0,120,120,120,158.3132275829994,,,,,,,,158.30253829200228,158.3132275829994,158.3132275829994,158.59108908299822,158.61569716699887,159.5445844999922,159.57350762499846,159.55716883299465,None,,,,,,,,001,001,2025-05-30_14h40.21.230,N170,2024.2.4,None,2025-05-30 14h40.27.581570 -0400,
images/objects/26425370.thl.jpg,original,object,121,121,0,None,,0,121,121,121,159.57350762499846,,,,,,,,159.5627370000002,159.57350762499846,159.57350762499846,159.861936375004,159.87419712499832,160.75763199999346,160.7928890829935,160.76666595799907,None,,,,,,,,001,001,2025-05-30_14h40.21.230,N170,2024.2.4,None,2025-05-30 14h40.27.581570 -0400,
images/faces/male/Usher.jpg,original,face,122,122,0,None,,0,122,122,122,160.7928890829935,,,,,,,,160.7824511249928,160.7928890829935,160.7928890829935,161.06590762500127,161.0899413330044,161.9210275420046,161.96235504199285,161.9433862500009,None,,,,,,,,001,001,2025-05-30_14h40.21.230,N170,2024.2.4,None,2025-05-30 14h40.27.581570 -0400,
images/objects/Atoyball.jpg,original,object,123,123,0,None,,0,123,123,123,161.96235504199285,,,,,,,,161.9517340829916,161.96235504199285,161.96235504199285,162.24808787499205,162.25766025000485,163.32151487500232,163.34991725000145,163.32167291699443,None,,,,,,,,001,001,2025-05-30_14h40.21.230,N170,2024.2.4,None,2025-05-30 14h40.27.581570 -0400,
images/faces/male/Eminem.jpg,original,face,124,124,0,None,,0,124,124,124,163.34991725000145,,,,,,,,163.33927616699657,163.34991725000145,163.34991725000145,163.62318229199445,163.64716141700046,164.84517745800258,164.93037162499968,164.86788362500374,None,,,,,,,,001,001,2025-05-30_14h40.21.230,N170,2024.2.4,None,2025-05-30 14h40.27.581570 -0400,
images/faces/male/Billy_Joel.jpg,original,face,125,125,0,None,,0,125,125,125,164.93037162499968,,,,,,,,164.92101666699455,164.93037162499968,164.93037162499968,165.16444987499563,165.22591083300358,166.28934787500475,166.40776604200073,166.34508904199174,None,,,,,,,,001,001,2025-05-30_14h40.21.230,N170,2024.2.4,None,2025-05-30 14h40.27.581570 -0400,
images/faces/male/John_Legend.jpg,original,face,126,126,0,2,0.719554541996331,0,126,126,126,166.40776604200073,,,,,,,,166.39720908299205,166.40776604200073,166.40776604200073,166.63799141699565,166.7033943330025,167.71349254199595,167.87214558299456,167.76980679199914,2,0.719554541996331,,,,,,,001,001,2025-05-30_14h40.21.230,N170,2024.2.4,None,2025-05-30 14h40.27.581570 -0400,
images/faces/female/Cecily_Strong.jpg,original,face,127,127,0,None,,0,127,127,127,167.87214558299456,,,,,,,,167.8636217500025,167.87214558299456,167.87214558299456,168.06812983300188,168.1721060830023,169.16987029199663,169.3443438749964,169.27306966700417,None,,,,,,,,001,001,2025-05-30_14h40.21.230,N170,2024.2.4,None,2025-05-30 14h40.27.581570 -0400,
images/faces/male/Michael_Che.jpg,original,face,128,128,0,None,,0,128,128,128,169.3443438749964,,,,,,,,169.3356090830057,169.3443438749964,169.3443438749964,169.57066637500247,169.63784379199205,170.59964583300462,170.73546404199442,170.66776237500017,None,,,,,,,,001,001,2025-05-30_14h40.21.230,N170,2024.2.4,None,2025-05-30 14h40.27.581570 -0400,
images/faces/female/Heidi_Klum.jpg,original,face,129,129,0,None,,0,129,129,129,170.73546404199442,,,,,,,,170.72398979199352,170.73546404199442,170.73546404199442,170.96266183299304,171.03827195799386,171.79760612499376,171.88057912500517,171.85702529200353,None,,,,,,,,001,001,2025-05-30_14h40.21.230,N170,2024.2.4,None,2025-05-30 14h40.27.581570 -0400,
images/objects/AALARMSY6.jpg,repeat,object,130,130,0,2,0.5313442500046222,0,130,130,130,171.88057912500517,,,,,,,,171.86984520799888,171.88057912500517,171.88057912500517,172.1585130829917,172.18299495799874,173.19726666700444,173.22582383299596,173.20958662500198,2,0.5313442500046222,,,,,,,001,001,2025-05-30_14h40.21.230,N170,2024.2.4,None,2025-05-30 14h40.27.581570 -0400,
images/objects/8027086.thl.jpg,repeat,object,131,131,0,None,,0,131,131,131,173.22582383299596,,,,,,,,173.21500349999405,173.22582383299596,173.22582383299596,173.5112283329945,173.52258233299654,174.30838279200543,174.4743232079927,174.32007958300528,None,,,,,,,,001,001,2025-05-30_14h40.21.230,N170,2024.2.4,None,2025-05-30 14h40.27.581570 -0400,
images/faces/male/Dr_Phil.jpg,original,face,132,132,0,None,,0,132,132,132,174.4743232079927,,,,,,,,174.46630495799764,174.4743232079927,174.4743232079927,174.6137054169958,174.7751035830006,175.78388879199338,175.96293854199757,175.93122545799997,None,,,,,,,,001,001,2025-05-30_14h40.21.230,N170,2024.2.4,None,2025-05-30 14h40.27.581570 -0400,
images/objects/26468374.thl.jpg,original,object,133,133,0,None,,0,133,133,133,175.96293854199757,,,,,,,,175.95223158299632,175.96293854199757,175.96293854199757,176.23404116700112,176.257570457994,177.4415921250038,177.46955370799697,177.45318066699838,None,,,,,,,,001,001,2025-05-30_14h40.21.230,N170,2024.2.4,None,2025-05-30 14h40.27.581570 -0400,
images/objects/8077486.thl.jpg,original,object,134,134,0,None,,0,134,134,134,177.46955370799697,,,,,,,,177.45948462499655,177.46955370799697,177.46955370799697,177.74763866700232,177.7717188749957,178.7145714579965,178.7406678749976,178.72619699999632,None,,,,,,,,001,001,2025-05-30_14h40.21.230,N170,2024.2.4,None,2025-05-30 14h40.27.581570 -0400,
images/objects/ACOWBOYH3.jpg,repeat,object,135,135,0,None,,0,135,135,135,178.7406678749976,,,,,,,,178.72996529200464,178.7406678749976,178.7406678749976,179.0233192500018,179.03558958299982,180.13894254200568,180.15857762499945,180.13943904200278,None,,,,,,,,001,001,2025-05-30_14h40.21.230,N170,2024.2.4,None,2025-05-30 14h40.27.581570 -0400,
images/objects/babyseatback.jpg,original,object,136,136,0,None,,0,136,136,136,180.15857762499945,,,,,,,,180.1478984580026,180.15857762499945,180.15857762499945,180.44569224999577,180.45846704200085,181.56845095800236,181.7192954170023,181.56863525000517,None,,,,,,,,001,001,2025-05-30_14h40.21.230,N170,2024.2.4,None,2025-05-30 14h40.27.581570 -0400,
images/faces/male/Prince_William.jpg,original,face,137,137,0,None,,0,137,137,137,181.7192954170023,,,,,,,,181.71062420800445,181.7192954170023,181.7192954170023,181.86107654200168,182.01239941699896,183.03090762499778,183.22219775000121,183.1797739169997,None,,,,,,,,001,001,2025-05-30_14h40.21.230,N170,2024.2.4,None,2025-05-30 14h40.27.581570 -0400,
images/faces/female/Candy_Spelling.jpg,original,face,138,138,0,None,,0,138,138,138,183.22219775000121,,,,,,,,183.21161145799852,183.22219775000121,183.22219775000121,183.48066233299323,183.52806633300497,184.54759904199454,184.60047233299701,184.5820184579934,None,,,,,,,,001,001,2025-05-30_14h40.21.230,N170,2024.2.4,None,2025-05-30 14h40.27.581570 -0400,
images/objects/swingset.jpg,repeat,object,139,139,0,None,,0,139,139,139,184.60047233299701,,,,,,,,184.59033854199515,184.60047233299701,184.60047233299701,184.88345574999403,184.8950100420043,185.82222433299467,185.83848737500375,185.8224220419943,None,,,,,,,,001,001,2025-05-30_14h40.21.230,N170,2024.2.4,None,2025-05-30 14h40.27.581570 -0400,
images/objects/Atoyball.jpg,repeat,object,140,140,0,2,0.7021477920061443,0,140,140,140,185.83848737500375,,,,,,,,185.82779279199895,185.83848737500375,185.83848737500375,186.12240687500162,186.13374124999973,186.90174495799874,186.92926070799876,186.90192120800202,2,0.7021477920061443,,,,,,,001,001,2025-05-30_14h40.21.230,N170,2024.2.4,None,2025-05-30 14h40.27.581570 -0400,
images/faces/female/Meghan_Rapinoe.jpg,repeat,face,141,141,0,2,0.6617585419880925,0,141,141,141,186.92926070799876,,,,,,,,186.919331416997,186.92926070799876,186.92926070799876,187.20319291700434,187.2276426669996,188.27817804200458,188.3547070420027,188.28965049999533,2,0.6617585419880925,,,,,,,001,001,2025-05-30_14h40.21.230,N170,2024.2.4,None,2025-05-30 14h40.27.581570 -0400,
images/faces/female/Ellen_DeGeneres.jpg,original,face,142,142,0,None,,0,142,142,142,188.3547070420027,,,,,,,,188.34441987499304,188.3547070420027,188.3547070420027,188.58428249999997,188.6504525420023,189.47539750000578,189.57051795799634,189.53859949999605,None,,,,,,,,001,001,2025-05-30_14h40.21.230,N170,2024.2.4,None,2025-05-30 14h40.27.581570 -0400,
images/faces/male/Tom_Hardy.jpg,original,face,143,143,0,None,,0,143,143,143,189.57051795799634,,,,,,,,189.55986029199266,189.57051795799634,189.57051795799634,189.83671683300054,189.87270016700495,190.59515508299228,190.64548274999834,190.61913316699793,None,,,,,,,,001,001,2025-05-30_14h40.21.230,N170,2024.2.4,None,2025-05-30 14h40.27.581570 -0400,
images/faces/male/Tucker_Carlson.jpg,original,face,144,144,0,None,,0,144,144,144,190.64548274999834,,,,,,,,190.6345941670006,190.64548274999834,190.64548274999834,190.9205084580026,190.94469712499995,191.79937716700078,191.89983412499714,191.81138174999796,None,,,,,,,,001,001,2025-05-30_14h40.21.230,N170,2024.2.4,None,2025-05-30 14h40.27.581570 -0400,
images/faces/female/Simone_Biles.jpg,original,face,145,145,0,None,,0,145,145,145,191.89983412499714,,,,,,,,191.89123083300365,191.89983412499714,191.89983412499714,192.10300716699567,192.19498212500184,193.05100062499696,193.16067441699852,193.13272158299515,None,,,,,,,,001,001,2025-05-30_14h40.21.230,N170,2024.2.4,None,2025-05-30 14h40.27.581570 -0400,
images/objects/23065398.thl.jpg,original,object,146,146,0,None,,0,146,146,146,193.16067441699852,,,,,,,,193.14962120799464,193.16067441699852,193.16067441699852,193.43578470799548,193.4594642919983,194.28791854200244,194.3588352920051,194.30039837499498,None,,,,,,,,001,001,2025-05-30_14h40.21.230,N170,2024.2.4,None,2025-05-30 14h40.27.581570 -0400,
images/faces/female/Beyonce.jpg,original,face,147,147,0,None,,0,147,147,147,194.3588352920051,,,,,,,,194.34956579199934,194.3588352920051,194.3588352920051,194.59834345799754,194.65837433299748,195.59021466699778,195.66782429200248,195.6471341669967,None,,,,,,,,001,001,2025-05-30_14h40.21.230,N170,2024.2.4,None,2025-05-30 14h40.27.581570 -0400,
images/objects/23041782.thl.jpg,original,object,148,148,0,None,,0,148,148,148,195.66782429200248,,,,,,,,195.657387750005,195.66782429200248,195.66782429200248,195.9473117919988,195.9714157499984,197.10937470800127,197.14895341699594,197.12208862499392,None,,,,,,,,001,001,2025-05-30_14h40.21.230,N170,2024.2.4,None,2025-05-30 14h40.27.581570 -0400,
images/faces/male/Tom_Brady.jpg,original,face,149,149,0,None,,0,149,149,149,197.14895341699594,,,,,,,,197.1392193329957,197.14895341699594,197.14895341699594,197.42767595799523,197.45186820799427,198.20078008300334,198.23337679199176,198.21277595800348,None,,,,,,,,001,001,2025-05-30_14h40.21.230,N170,2024.2.4,None,2025-05-30 14h40.27.581570 -0400,
images/objects/Abowl74.jpg,original,object,150,150,0,None,,0,150,150,150,198.23337679199176,,,,,,,,198.22258950000105,198.23337679199176,198.23337679199176,198.51102462499694,198.5349167079985,199.69382349999796,199.7211846249993,199.70492229200318,None,,,,,,,,001,001,2025-05-30_14h40.21.230,N170,2024.2.4,None,2025-05-30 14h40.27.581570 -0400,
images/objects/Aoilcan11.jpg,original,object,151,151,0,None,,0,151,151,151,199.7211846249993,,,,,,,,199.71120345799136,199.7211846249993,199.7211846249993,199.9998462079966,200.02409462499782,201.21862004199647,201.24770179200277,201.23019995799405,None,,,,,,,,001,001,2025-05-30_14h40.21.230,N170,2024.2.4,None,2025-05-30 14h40.27.581570 -0400,
images/faces/female/Nikki_De_Jager.jpg,original,face,152,152,0,None,,0,152,152,152,201.24770179200277,,,,,,,,201.2388427919941,201.24770179200277,201.24770179200277,201.53033133299323,201.53873241700057,202.44733516700217,202.4758780830016,202.4475187920034,None,,,,,,,,001,001,2025-05-30_14h40.21.230,N170,2024.2.4,None,2025-05-30 14h40.27.581570 -0400,
images/faces/female/Rachel_McAdams.jpg,original,face,153,153,0,None,,0,153,153,153,202.4758780830016,,,,,,,,202.4651394579996,202.4758780830016,202.4758780830016,202.74778112499916,202.76969370800362,203.7259961249947,203.76583366699924,203.74592720800138,None,,,,,,,,001,001,2025-05-30_14h40.21.230,N170,2024.2.4,None,2025-05-30 14h40.27.581570 -0400,
images/objects/23028486.thl.jpg,original,object,154,154,0,None,,0,154,154,154,203.76583366699924,,,,,,,,203.75509366700135,203.76583366699924,203.76583366699924,204.04292162500496,204.06710795799154,205.0921467080043,205.11922416699235,205.10429133300204,None,,,,,,,,001,001,2025-05-30_14h40.21.230,N170,2024.2.4,None,2025-05-30 14h40.27.581570 -0400,
images/objects/26432217.thl.jpg,repeat,object,155,155,0,2,0.6241432079987135,0,155,155,155,205.11922416699235,,,,,,,,205.10957929199503,205.11922416699235,205.11922416699235,205.4054043329961,205.4183446669922,206.386468333003,206.4283801249985,206.3977460419992,2,0.6241432079987135,,,,,,,001,001,2025-05-30_14h40.21.230,N170,2024.2.4,None,2025-05-30 14h40.27.581570 -0400,
images/faces/female/Carly_Rae_Jepsen.jpg,original,face,156,156,0,None,,0,156,156,156,206.4283801249985,,,,,,,,206.4176252079924,206.4283801249985,206.4283801249985,206.69682695799565,206.73316729199723,207.54916262500046,207.59610683299252,207.56974633299978,None,,,,,,,,001,001,2025-05-30_14h40.21.230,N170,2024.2.4,None,2025-05-30 14h40.27.581570 -0400,
images/faces/male/Paul_Dano.jpg,original,face,157,157,0,2,0.8925768750050338,0,157,157,157,207.59610683299252,,,,,,,,207.58558012499998,207.59610683299252,207.59610683299252,207.86625112500042,207.90296049999597,208.63089062500512,208.65901041700272,208.64115616699564,2,0.8925768750050338,,,,,,,001,001,2025-05-30_14h40.21.230,N170,2024.2.4,None,2025-05-30 14h40.27.581570 -0400,
images/objects/26378596.thl.jpg,original,object,158,158,0,None,,0,158,158,158,208.65901041700272,,,,,,,,208.64792337499966,208.65901041700272,208.65901041700272,208.93372116699175,208.9578450830013,209.80864970799303,209.88770545799343,209.8208965829981,None,,,,,,,,001,001,2025-05-30_14h40.21.230,N170,2024.2.4,None,2025-05-30 14h40.27.581570 -0400,
images/faces/male/Leonardo_DiCaprio.jpg,original,face,159,159,0,None,,0,159,159,159,209.88770545799343,,,,,,,,209.87776866699278,209.88770545799343,209.88770545799343,210.11708958300005,210.1829173330043,210.98499912499392,211.0768565000035,211.04378104199714,None,,,,,,,,001,001,2025-05-30_14h40.21.230,N170,2024.2.4,None,2025-05-30 14h40.27.581570 -0400,
images/faces/female/Michelle_Dockery.jpg,original,face,160,160,0,None,,0,160,160,160,211.0768565000035,,,,,,,,211.06709116700222,211.0768565000035,211.0768565000035,211.3483579169988,211.372132125005,212.54055641699233,212.58570020800107,212.56513487499615,None,,,,,,,,001,001,2025-05-30_14h40.21.230,N170,2024.2.4,None,2025-05-30 14h40.27.581570 -0400,
images/objects/Amilkcrate2.jpg,original,object,161,161,0,None,,0,161,161,161,212.58570020800107,,,,,,,,212.57511583299492,212.58570020800107,212.58570020800107,212.86665837500186,212.8869796670042,213.95526770799188,213.9835697919916,213.967308124993,None,,,,,,,,001,001,2025-05-30_14h40.21.230,N170,2024.2.4,None,2025-05-30 14h40.27.581570 -0400,
images/objects/26425322.thl.jpg,original,object,162,162,0,None,,0,162,162,162,213.9835697919916,,,,,,,,213.97297145800258,213.9835697919916,213.9835697919916,214.26642641700164,214.27921666699694,215.46239404199878,215.5153759579989,215.4737316249957,None,,,,,,,,001,001,2025-05-30_14h40.21.230,N170,2024.2.4,None,2025-05-30 14h40.27.581570 -0400,
images/faces/male/John_Grisham.jpg,original,face,163,163,0,None,,0,163,163,163,215.5153759579989,,,,,,,,215.5056246669992,215.5153759579989,215.5153759579989,215.76965512499737,215.80830220799544,216.55328783299774,216.60818858299172,216.58851604200026,None,,,,,,,,001,001,2025-05-30_14h40.21.230,N170,2024.2.4,None,2025-05-30 14h40.27.581570 -0400,
images/objects/ABROCHETT.jpg,original,object,164,164,0,None,,0,164,164,164,216.60818858299172,,,,,,,,216.5979427919956,216.60818858299172,216.60818858299172,216.8842265830026,216.90878083299322,217.80401916700066,217.85834224999417,217.82774733299448,None,,,,,,,,001,001,2025-05-30_14h40.21.230,N170,2024.2.4,None,2025-05-30 14h40.27.581570 -0400,
images/faces/female/Julie_Sarinana.jpg,original,face,165,165,0,None,,0,165,165,165,217.85834224999417,,,,,,,,217.8477827500028,217.85834224999417,217.85834224999417,218.12791470800585,218.16197583300527,219.18786179200106,219.2172147079982,219.1993932500045,None,,,,,,,,001,001,2025-05-30_14h40.21.230,N170,2024.2.4,None,2025-05-30 14h40.27.581570 -0400,
images/objects/26437080.thl.jpg,original,object,166,166,0,None,,0,166,166,166,219.2172147079982,,,,,,,,219.20719045799342,219.2172147079982,219.2172147079982,219.49617162499635,219.51939145800134,220.3711539999931,220.4017723750003,220.38398475000577,None,,,,,,,,001,001,2025-05-30_14h40.21.230,N170,2024.2.4,None,2025-05-30 14h40.27.581570 -0400,
images/objects/heartchocolat.jpg,original,object,167,167,0,None,,0,167,167,167,220.4017723750003,,,,,,,,220.39116441700025,220.4017723750003,220.4017723750003,220.6834591670049,220.70695087499917,221.87737466700491,221.89407187499455,221.8775394999975,None,,,,,,,,001,001,2025-05-30_14h40.21.230,N170,2024.2.4,None,2025-05-30 14h40.27.581570 -0400,
images/objects/heartchocolat.jpg,repeat,object,168,168,0,2,0.27315816600457765,0,168,168,168,221.89407187499455,,,,,,,,221.88329816699843,221.89407187499455,221.89407187499455,222.1789637079928,222.19037941699207,223.0579962500051,223.07461487500404,223.0581684170029,2,0.27315816600457765,,,,,,,001,001,2025-05-30_14h40.21.230,N170,2024.2.4,None,2025-05-30 14h40.27.581570 -0400,
images/objects/26440261.thl.jpg,original,object,169,169,0,None,,0,169,169,169,223.07461487500404,,,,,,,,223.06395829199755,223.07461487500404,223.07461487500404,223.3580311669939,223.36951579200104,224.19041804199514,224.20779191699694,224.19060008300585,None,,,,,,,,001,001,2025-05-30_14h40.21.230,N170,2024.2.4,None,2025-05-30 14h40.27.581570 -0400,
images/objects/funlamp.jpg,original,object,170,170,0,None,,0,170,170,170,224.20779191699694,,,,,,,,224.19754587499483,224.20779191699694,224.20779191699694,224.4915028749965,224.5023850419966,225.5925869999919,225.65764737500285,225.5927851669985,None,,,,,,,,001,001,2025-05-30_14h40.21.230,N170,2024.2.4,None,2025-05-30 14h40.27.581570 -0400,
images/faces/male/Bryan_Cranston.jpg,original,face,171,171,0,None,,0,171,171,171,225.65764737500285,,,,,,,,225.64885041699745,225.65764737500285,225.65764737500285,225.89385295800457,225.9538894169964,226.708281291998,226.79497616700246,226.7631211669941,None,,,,,,,,001,001,2025-05-30_14h40.21.230,N170,2024.2.4,None,2025-05-30 14h40.27.581570 -0400,
images/faces/male/Sanjay_Gupta.jpg,original,face,172,172,0,None,,0,172,172,172,226.79497616700246,,,,,,,,226.78432616699138,226.79497616700246,226.79497616700246,227.07100291700044,227.09463979200518,227.94552275000024,227.9812616249983,227.95737908300362,None,,,,,,,,001,001,2025-05-30_14h40.21.230,N170,2024.2.4,None,2025-05-30 14h40.27.581570 -0400,
images/faces/female/Hillary_Duff.jpg,original,face,173,173,0,2,0.8462272920005489,0,173,173,173,227.9812616249983,,,,,,,,227.9719472919969,227.9812616249983,227.9812616249983,228.2556596249924,228.27868929199758,229.3204078330018,229.36005254200427,229.34194066700002,2,0.8462272920005489,,,,,,,001,001,2025-05-30_14h40.21.230,N170,2024.2.4,None,2025-05-30 14h40.27.581570 -0400,
images/objects/DSCN3767-sm.jpg,original,object,174,174,0,None,,0,174,174,174,229.36005254200427,,,,,,,,229.3500624580047,229.36005254200427,229.36005254200427,229.64556183299283,229.6568997919967,230.88667087499925,230.90406320799957,230.88686020800378,None,,,,,,,,001,001,2025-05-30_14h40.21.230,N170,2024.2.4,None,2025-05-30 14h40.27.581570 -0400,
images/objects/tricycle.jpg,original,object,175,175,0,None,,0,175,175,175,230.90406320799957,,,,,,,,230.89419716699922,230.90406320799957,230.90406320799957,231.19171691700467,231.20267749999766,232.25155837499187,232.2814157919929,232.25175112500438,None,,,,,,,,001,001,2025-05-30_14h40.21.230,N170,2024.2.4,None,2025-05-30 14h40.27.581570 -0400,
images/faces/female/Hillary_Duff.jpg,repeat,face,176,176,0,2,0.5441307919973042,0,176,176,176,232.2814157919929,,,,,,,,232.27113787499547,232.2814157919929,232.2814157919929,232.55054024999845,232.57584362500347,233.41751270799432,233.45960287499474,233.44067062500108,2,0.5441307919973042,,,,,,,001,001,2025-05-30_14h40.21.230,N170,2024.2.4,None,2025-05-30 14h40.27.581570 -0400,
images/objects/22856784.thl.jpg,original,object,177,177,0,None,,0,177,177,177,233.45960287499474,,,,,,,,233.4488952919928,233.45960287499474,233.45960287499474,233.7436231669999,233.75594245799584,234.50872191699455,234.5450605829974,234.5088778329955,None,,,,,,,,001,001,2025-05-30_14h40.21.230,N170,2024.2.4,None,2025-05-30 14h40.27.581570 -0400,
images/faces/male/Lionel_Messi.jpg,original,face,178,178,0,None,,0,178,178,178,234.5450605829974,,,,,,,,234.534560125001,234.5450605829974,234.5450605829974,234.80576191699947,234.8392937919998,235.77102737499808,235.89033420800115,235.79496133299835,None,,,,,,,,001,001,2025-05-30_14h40.21.230,N170,2024.2.4,None,2025-05-30 14h40.27.581570 -0400,
images/faces/female/Mary_Barra.jpg,original,face,179,179,0,None,,0,179,179,179,235.89033420800115,,,,,,,,235.88167170800443,235.89033420800115,235.89033420800115,236.09521070799383,236.18947754199326,237.31601075000071,237.44013279199135,237.4064362920035,None,,,,,,,,001,001,2025-05-30_14h40.21.230,N170,2024.2.4,None,2025-05-30 14h40.27.581570 -0400,
images/faces/male/Max_Verstappen.jpg,original,face,180,180,0,None,,0,180,180,180,237.44013279199135,,,,,,,,237.43028141699324,237.44013279199135,237.44013279199135,237.70517379199737,237.74098279200552,238.78420704200107,238.83560508300434,238.81729066699336,None,,,,,,,,001,001,2025-05-30_14h40.21.230,N170,2024.2.4,None,2025-05-30 14h40.27.581570 -0400,
images/objects/8245419.thl.jpg,original,object,181,181,0,None,,0,181,181,181,238.83560508300434,,,,,,,,238.8252702919999,238.83560508300434,238.83560508300434,239.11395625000296,239.13728016699315,240.15362687499146,240.1937603749975,240.16482662499766,None,,,,,,,,001,001,2025-05-30_14h40.21.230,N170,2024.2.4,None,2025-05-30 14h40.27.581570 -0400,
images/faces/female/Margaret_Atwood.jpg,original,face,182,182,0,None,,0,182,182,182,240.1937603749975,,,,,,,,240.1835034579999,240.1937603749975,240.1937603749975,240.46464020799613,240.4895684170042,241.23742266699264,241.27183537499513,241.24916574999224,None,,,,,,,,001,001,2025-05-30_14h40.21.230,N170,2024.2.4,None,2025-05-30 14h40.27.581570 -0400,
images/faces/female/Nora_Roberts.jpg,original,face,183,183,0,None,,0,183,183,183,241.27183537499513,,,,,,,,241.26133645800292,241.27183537499513,241.27183537499513,241.55000804200245,241.57306945799792,242.75801045799744,242.78667554199637,242.77028820800479,None,,,,,,,,001,001,2025-05-30_14h40.21.230,N170,2024.2.4,None,2025-05-30 14h40.27.581570 -0400,
images/objects/22925624.thl.jpg,original,object,184,184,0,None,,0,184,184,184,242.78667554199637,,,,,,,,242.77748066700588,242.78667554199637,242.78667554199637,243.07222662499407,243.08274595800322,243.88340766700276,243.91146691699396,243.89469779199862,None,,,,,,,,001,001,2025-05-30_14h40.21.230,N170,2024.2.4,None,2025-05-30 14h40.27.581570 -0400,
images/objects/AANTHAT2.jpg,original,object,185,185,0,None,,0,185,185,185,243.91146691699396,,,,,,,,243.9009078329982,243.91146691699396,243.91146691699396,244.19169649999822,244.21308795799268,245.39036229200428,245.42035524999665,245.40267487500387,None,,,,,,,,001,001,2025-05-30_14h40.21.230,N170,2024.2.4,None,2025-05-30 14h40.27.581570 -0400,
images/objects/ACANOL.jpg,original,object,186,186,0,None,,0,186,186,186,245.42035524999665,,,,,,,,245.40962979200413,245.42035524999665,245.42035524999665,245.70703979200334,245.71900979199563,246.78773795800225,246.80232062499272,246.78791687499324,None,,,,,,,,001,001,2025-05-30_14h40.21.230,N170,2024.2.4,None,2025-05-30 14h40.27.581570 -0400,
images/objects/26425322.thl.jpg,repeat,object,187,187,0,2,0.6428902499901596,0,187,187,187,246.80232062499272,,,,,,,,246.7919866250013,246.80232062499272,246.80232062499272,247.0835844999965,247.10854770800506,248.1284599579958,248.16850920800061,248.1396856670035,2,0.6428902499901596,,,,,,,001,001,2025-05-30_14h40.21.230,N170,2024.2.4,None,2025-05-30 14h40.27.581570 -0400,
images/faces/male/George_Clooney.jpg,repeat,face,188,188,0,None,,0,188,188,188,248.16850920800061,,,,,,,,248.1583357079944,248.16850920800061,248.16850920800061,248.43441604200052,248.47023150000314,249.50738179200562,249.5609480419953,249.52921579200483,None,,,,,,,,001,001,2025-05-30_14h40.21.230,N170,2024.2.4,None,2025-05-30 14h40.27.581570 -0400,
images/objects/Abottleopener.jpg,original,object,189,189,0,None,,0,189,189,189,249.5609480419953,,,,,,,,249.55055933300173,249.5609480419953,249.5609480419953,249.82472775000497,249.85943574999692,250.6166318750038,250.6549294169963,250.63887337499182,None,,,,,,,,001,001,2025-05-30_14h40.21.230,N170,2024.2.4,None,2025-05-30 14h40.27.581570 -0400,
images/objects/Aflower136.jpg,original,object,190,190,0,2,0.7015229999960866,0,190,190,190,250.6549294169963,,,,,,,,250.64496237499407,250.6549294169963,250.6549294169963,250.9389029169979,250.95067229200504,251.99963424999441,252.01739195799746,251.99979766699835,2,0.7015229999960866,,,,,,,001,001,2025-05-30_14h40.21.230,N170,2024.2.4,None,2025-05-30 14h40.27.581570 -0400,
images/objects/jumpmattress.jpg,original,object,191,191,0,2,0.610225915996125,0,191,191,191,252.01739195799746,,,,,,,,252.0065997079946,252.01739195799746,252.01739195799746,252.30267662499682,252.31462000000465,253.16264887500438,253.1790947499976,253.1628517920035,2,0.610225915996125,,,,,,,001,001,2025-05-30_14h40.21.230,N170,2024.2.4,None,2025-05-30 14h40.27.581570 -0400,
images/objects/fireking-file-cabinet.jpg,original,object,192,192,0,None,,0,192,192,192,253.1790947499976,,,,,,,,253.16817541699857,253.1790947499976,253.1790947499976,253.45820100000128,253.48250199999893,254.6306937079935,254.67343408300076,254.64283662500384,None,,,,,,,,001,001,2025-05-30_14h40.21.230,N170,2024.2.4,None,2025-05-30 14h40.27.581570 -0400,
images/faces/male/Spike_Lee.jpg,original,face,193,193,0,None,,0,193,193,193,254.67343408300076,,,,,,,,254.66290574999584,254.67343408300076,254.67343408300076,254.948975583,254.9738558329991,255.88140129200474,255.94614045799244,255.89102195799933,None,,,,,,,,001,001,2025-05-30_14h40.21.230,N170,2024.2.4,None,2025-05-30 14h40.27.581570 -0400,
images/faces/male/Caleb_Dressel.jpg,original,face,194,194,0,None,,0,194,194,194,255.94614045799244,,,,,,,,255.9365645420039,255.94614045799244,255.94614045799244,256.19313775000046,256.2423468329944,257.0815663329995,257.14489279199915,257.1237290830031,None,,,,,,,,001,001,2025-05-30_14h40.21.230,N170,2024.2.4,None,2025-05-30 14h40.27.581570 -0400,
images/objects/26424075.thl.jpg,original,object,195,195,0,None,,0,195,195,195,257.14489279199915,,,,,,,,257.1341339999926,257.14489279199915,257.14489279199915,257.42004312499193,257.44317691700417,258.6260901249916,258.654563707998,258.6379503329954,None,,,,,,,,001,001,2025-05-30_14h40.21.230,N170,2024.2.4,None,2025-05-30 14h40.27.581570 -0400,
images/objects/saltpeppershakerjpg.jpg,original,object,196,196,0,None,,0,196,196,196,258.654563707998,,,,,,,,258.6439971249929,258.654563707998,258.654563707998,258.94113045799895,258.9525481669989,259.7950133330014,259.82556812500115,259.80722316699394,None,,,,,,,,001,001,2025-05-30_14h40.21.230,N170,2024.2.4,None,2025-05-30 14h40.27.581570 -0400,
images/objects/Atoyfiretru11.jpg,original,object,197,197,0,2,0.7584115829959046,0,197,197,197,259.82556812500115,,,,,,,,259.81500449999294,259.82556812500115,259.82556812500115,260.1049794580031,260.1276997499954,261.27624595799716,261.29302204199485,261.2764368329954,2,0.7584115829959046,,,,,,,001,001,2025-05-30_14h40.21.230,N170,2024.2.4,None,2025-05-30 14h40.27.581570 -0400,
images/objects/AARMCHA25.jpg,original,object,198,198,0,None,,0,198,198,198,261.29302204199485,,,,,,,,261.282361916994,261.29302204199485,261.29302204199485,261.5763591249997,261.58867233300407,262.52341387499473,262.5519080829981,262.52359404199524,None,,,,,,,,001,001,2025-05-30_14h40.21.230,N170,2024.2.4,None,2025-05-30 14h40.27.581570 -0400,
images/faces/male/Tom_Hardy.jpg,repeat,face,199,199,0,2,0.5851995830016676,0,199,199,199,262.5519080829981,,,,,,,,262.54108829199686,262.5519080829981,262.5519080829981,262.8270477920014,262.85138658300275,263.62587208299374,263.6735023749934,263.64527150000504,2,0.5851995830016676,,,,,,,001,001,2025-05-30_14h40.21.230,N170,2024.2.4,None,2025-05-30 14h40.27.581570 -0400,
images/objects/ATOWRACK3.jpg,original,object,200,200,0,None,,0,200,200,200,263.6735023749934,,,,,,,,263.6631655419915,263.6735023749934,263.6735023749934,263.946823708,263.9702299999917,264.77447091699287,264.81352275000245,264.80043337499956,None,,,,,,,,001,001,2025-05-30_14h40.21.230,N170,2024.2.4,None,2025-05-30 14h40.27.581570 -0400,
images/objects/23051010.thl.jpg,repeat,object,201,201,0,2,0.6581599160126643,0,201,201,201,264.81352275000245,,,,,,,,264.8039501250023,264.81352275000245,264.81352275000245,265.10061387499445,265.1106123329955,265.85207779200573,265.86953904200345,265.85260724999534,2,0.6581599160126643,,,,,,,001,001,2025-05-30_14h40.21.230,N170,2024.2.4,None,2025-05-30 14h40.27.581570 -0400,
images/objects/ACENTRIF5.jpg,original,object,202,202,0,None,,0,202,202,202,265.86953904200345,,,,,,,,265.85957625000447,265.86953904200345,265.86953904200345,266.1497225829953,266.17408050000085,267.1088029579987,267.1340507080022,267.1205496670009,None,,,,,,,,001,001,2025-05-30_14h40.21.230,N170,2024.2.4,None,2025-05-30 14h40.27.581570 -0400,
images/objects/26387436.thl.jpg,original,object,203,203,0,None,,0,203,203,203,267.1340507080022,,,,,,,,267.12465625000186,267.1340507080022,267.1340507080022,267.422425458004,267.43458466700395,268.27184204199875,268.3280885830027,268.27203129199916,None,,,,,,,,001,001,2025-05-30_14h40.21.230,N170,2024.2.4,None,2025-05-30 14h40.27.581570 -0400,
images/faces/male/Paul_Rudd.jpg,original,face,204,204,0,None,,0,204,204,204,268.3280885830027,,,,,,,,268.31767258299806,268.3280885830027,268.3280885830027,268.5692056669941,268.629640166997,269.50692945800256,269.5738222920045,269.55258687499736,None,,,,,,,,001,001,2025-05-30_14h40.21.230,N170,2024.2.4,None,2025-05-30 14h40.27.581570 -0400,
images/objects/26424973.thl.jpg,original,object,205,205,0,None,,0,205,205,205,269.5738222920045,,,,,,,,269.5636499169923,269.5738222920045,269.5738222920045,269.8591827079945,269.87117137499445,270.8548610419966,270.90025954200246,270.85503420799796,None,,,,,,,,001,001,2025-05-30_14h40.21.230,N170,2024.2.4,None,2025-05-30 14h40.27.581570 -0400,
images/faces/male/Donald_Glover.jpg,original,face,206,206,0,None,,0,206,206,206,270.90025954200246,,,,,,,,270.88959883300413,270.90025954200246,270.90025954200246,271.1509926250001,271.1950647920021,271.90903208300006,271.98590091700316,271.9530041669932,None,,,,,,,,001,001,2025-05-30_14h40.21.230,N170,2024.2.4,None,2025-05-30 14h40.27.581570 -0400,
images/faces/female/Scarlett_Johansson.jpg,original,face,207,207,0,2,0.7311026670067804,0,207,207,207,271.98590091700316,,,,,,,,271.9753888749983,271.98590091700316,271.98590091700316,272.2547901249927,272.2908361669979,273.15848820799147,273.19857241699356,273.18029404200206,2,0.7311026670067804,,,,,,,001,001,2025-05-30_14h40.21.230,N170,2024.2.4,None,2025-05-30 14h40.27.581570 -0400,
images/objects/26684634.thl.jpg,original,object,208,208,0,None,,0,208,208,208,273.19857241699356,,,,,,,,273.1887247499981,273.19857241699356,273.19857241699356,273.48527216700313,273.4980585000012,274.6165913330042,274.6397632500011,274.62686770799337,None,,,,,,,,001,001,2025-05-30_14h40.21.230,N170,2024.2.4,None,2025-05-30 14h40.27.581570 -0400,
images/objects/AAIRPORTC.jpg,original,object,209,209,0,None,,0,209,209,209,274.6397632500011,,,,,,,,274.6312587499997,274.6397632500011,274.6397632500011,274.9229299580038,274.93232904199976,275.9082865419914,275.97223829200084,275.9084754999931,None,,,,,,,,001,001,2025-05-30_14h40.21.230,N170,2024.2.4,None,2025-05-30 14h40.27.581570 -0400,
images/faces/female/Billie_Eilish.jpg,original,face,210,210,0,2,0.8329935830115573,0,210,210,210,275.97223829200084,,,,,,,,275.9628807919944,275.97223829200084,275.97223829200084,276.20458125000005,276.2728294999979,277.0678212079947,277.14645191699674,277.1172753330029,2,0.8329935830115573,,,,,,,001,001,2025-05-30_14h40.21.230,N170,2024.2.4,None,2025-05-30 14h40.27.581570 -0400,
images/faces/female/Jennifer_Lopez.jpg,original,face,211,211,0,2,0.5425011670013191,0,211,211,211,277.14645191699674,,,,,,,,277.136837041995,277.14645191699674,277.14645191699674,277.4196975829982,277.44479954200506,278.1872206249973,278.2602080420038,278.19948812499933,2,0.5425011670013191,,,,,,,001,001,2025-05-30_14h40.21.230,N170,2024.2.4,None,2025-05-30 14h40.27.581570 -0400,
images/faces/female/Beyonce.jpg,repeat,face,212,212,0,2,0.3698408749914961,0,212,212,212,278.2602080420038,,,,,,,,278.24985654199554,278.2602080420038,278.2602080420038,278.5026444999967,278.5648194999958,279.318849999996,279.39509729199926,279.3635605830059,2,0.3698408749914961,,,,,,,001,001,2025-05-30_14h40.21.230,N170,2024.2.4,None,2025-05-30 14h40.27.581570 -0400,
images/faces/male/Mitch_McConnell.jpg,original,face,213,213,0,None,,0,213,213,213,279.39509729199926,,,,,,,,279.3844756670005,279.39509729199926,279.39509729199926,279.6681998749991,279.6917756250041,280.6647704170027,280.733284832997,280.68788637500256,None,,,,,,,,001,001,2025-05-30_14h40.21.230,N170,2024.2.4,None,2025-05-30 14h40.27.581570 -0400,
images/faces/female/Vanessa_Hudgens.jpg,original,face,214,214,0,None,,0,214,214,214,280.733284832997,,,,,,,,280.72252312500495,280.733284832997,280.733284832997,280.9889155419951,281.03537924999546,282.17215608300467,282.22838670799683,282.20817795800394,None,,,,,,,,001,001,2025-05-30_14h40.21.230,N170,2024.2.4,None,2025-05-30 14h40.27.581570 -0400,
images/objects/ACDRAINER.jpg,original,object,215,215,0,None,,0,215,215,215,282.22838670799683,,,,,,,,282.2183183750021,282.22838670799683,282.22838670799683,282.51165312499506,282.5244897920056,283.6858207079931,283.77751262500533,283.69598616700387,None,,,,,,,,001,001,2025-05-30_14h40.21.230,N170,2024.2.4,None,2025-05-30 14h40.27.581570 -0400,
images/faces/male/David_Schwimmer.jpg,original,face,216,216,0,None,,0,216,216,216,283.77751262500533,,,,,,,,283.7688496250048,283.77751262500533,283.77751262500533,283.99403800000437,284.0712539579981,284.8079811249918,284.96731716700015,284.88787629199214,None,,,,,,,,001,001,2025-05-30_14h40.21.230,N170,2024.2.4,None,2025-05-30 14h40.27.581570 -0400,
images/faces/male/Prince_Harry.jpg,repeat,face,217,217,0,2,0.5662919169990346,0,217,217,217,284.96731716700015,,,,,,,,284.95867441699374,284.96731716700015,284.96731716700015,285.18672629199864,285.2610202499927,286.11021920799976,286.2157075419964,286.18869833300414,2,0.5662919169990346,,,,,,,001,001,2025-05-30_14h40.21.230,N170,2024.2.4,None,2025-05-30 14h40.27.581570 -0400,
images/objects/retainertheeth.jpg,original,object,218,218,0,None,,0,218,218,218,286.2157075419964,,,,,,,,286.20492858299986,286.2157075419964,286.2157075419964,286.4926032499934,286.51588504199754,287.54984887500177,287.58925591700245,287.5612303749949,None,,,,,,,,001,001,2025-05-30_14h40.21.230,N170,2024.2.4,None,2025-05-30 14h40.27.581570 -0400,
images/faces/male/Eddie_Redmayne.jpg,original,face,219,219,0,None,,0,219,219,219,287.58925591700245,,,,,,,,287.5793711669976,287.58925591700245,287.58925591700245,287.8631531669962,287.88764162499865,288.74185691699677,288.76795733299514,288.75430045799294,None,,,,,,,,001,001,2025-05-30_14h40.21.230,N170,2024.2.4,None,2025-05-30 14h40.27.581570 -0400,
,,,,,,,,,,,,,,,,,,,,,,,,,,,,,,288.75456533300166,288.76795733299514,288.76795733299514,289.324796957997,2,0.5566736670007231,001,001,2025-05-30_14h40.21.230,N170,2024.2.4,None,2025-05-30 14h40.27.581570 -0400,
