name,repeat_status,stim_type,thisN,thisTrialN,thisRepN,button_resp.keys,button_resp.rt,image_loop.thisRepN,image_loop.thisTrialN,image_loop.thisN,image_loop.thisIndex,thisRow.t,notes,instructions.started,text_instructions.started,button_resp_inst.started,instructions.stopped,button_resp_inst.keys,button_resp_inst.rt,image_stim.started,image.started,button_resp.started,text.started,image.stopped,text.stopped,button_resp.stopped,image_stim.stopped,image_loop.button_resp.keys,image_loop.button_resp.rt,end.started,text_end.started,button_resp_end.started,end.stopped,button_resp_end.keys,button_resp_end.rt,participant,session,date,expName,psychopyVersion,frameRate,expStart,
,,,,,,,,,,,,,,0.01704862499900628,0.026897666000877507,0.026897666000877507,0.973082708005677,2,0.9460380000091391,,,,,,,,,,,,,,,,,001,001,2025-05-30_14h25.35.459,N170,2024.2.4,None,2025-05-30 14h25.45.215186 -0400,
images/faces/male/Justin_Timberlake.jpg,original,face,0,0,0,None,,0,0,0,0,1.015337750010076,,,,,,,,1.0040462909964845,1.015337750010076,1.015337750010076,1.2684065409994218,1.3081623330072034,2.3149382080009673,2.392605333006941,2.348790750009357,None,,,,,,,,001,001,2025-05-30_14h25.35.459,N170,2024.2.4,None,2025-05-30 14h25.45.215186 -0400,
images/faces/male/Tom_Hanks.jpg,original,face,1,1,0,None,,0,1,1,1,2.392605333006941,,,,,,,,2.381975083000725,2.392605333006941,2.392605333006941,2.6515740000031656,2.6868937910039676,3.431681665999349,3.544230041006813,3.454896249997546,None,,,,,,,,001,001,2025-05-30_14h25.35.459,N170,2024.2.4,None,2025-05-30 14h25.45.215186 -0400,
images/faces/female/Christina_Aguilera.jpg,original,face,2,2,0,None,,0,2,2,2,3.544230041006813,,,,,,,,3.535632915998576,3.544230041006813,3.544230041006813,3.7493025830044644,3.843975750001846,4.563984125008574,4.676334916002816,4.642747916004737,None,,,,,,,,001,001,2025-05-30_14h25.35.459,N170,2024.2.4,None,2025-05-30 14h25.45.215186 -0400,
images/objects/fullbucket.jpg,original,object,3,3,0,None,,0,3,3,3,4.676334916002816,,,,,,,,4.665879958003643,4.676334916002816,4.676334916002816,4.940025875010178,4.977189124998404,5.945870083000045,6.003864750004141,5.970032416007598,None,,,,,,,,001,001,2025-05-30_14h25.35.459,N170,2024.2.4,None,2025-05-30 14h25.45.215186 -0400,
images/objects/APARKBENC.jpg,original,object,4,4,0,None,,0,4,4,4,6.003864750004141,,,,,,,,5.9929188750102185,6.003864750004141,6.003864750004141,6.264931915997295,6.299784583010478,7.203436041003442,7.246222415997181,7.223431000005803,None,,,,,,,,001,001,2025-05-30_14h25.35.459,N170,2024.2.4,None,2025-05-30 14h25.45.215186 -0400,
images/objects/Acarnivalgame.jpg,original,object,5,5,0,None,,0,5,5,5,7.246222415997181,,,,,,,,7.236712915997487,7.246222415997181,7.246222415997181,7.518985208007507,7.5406830410065595,8.738537958008237,8.789547916006995,8.760592500009807,None,,,,,,,,001,001,2025-05-30_14h25.35.459,N170,2024.2.4,None,2025-05-30 14h25.45.215186 -0400,
images/faces/female/Carrie_Underwood.jpg,original,face,6,6,0,None,,0,6,6,6,8.789547916006995,,,,,,,,8.780116082998575,8.789547916006995,8.789547916006995,9.060955125009059,9.09249345799617,9.903698041001917,9.959990791001474,9.915015207996476,None,,,,,,,,001,001,2025-05-30_14h25.35.459,N170,2024.2.4,None,2025-05-30 14h25.45.215186 -0400,
images/faces/male/Jamie _Foxx.jpg,original,face,7,7,0,None,,0,7,7,7,9.959990791001474,,,,,,,,9.949499291004031,9.959990791001474,9.959990791001474,10.21267320800689,10.258146916006808,11.43688758299686,11.524702125010663,11.470003416005056,None,,,,,,,,001,001,2025-05-30_14h25.35.459,N170,2024.2.4,None,2025-05-30 14h25.45.215186 -0400,
images/faces/female/Adele.jpg,original,face,8,8,0,None,,0,8,8,8,11.524702125010663,,,,,,,,11.514367374998983,11.524702125010663,11.524702125010663,11.764971625001635,11.820619582998916,12.771023541004979,12.876697291008895,12.82631758300704,None,,,,,,,,001,001,2025-05-30_14h25.35.459,N170,2024.2.4,None,2025-05-30 14h25.45.215186 -0400,
images/faces/female/Alice_Walker.jpg,original,face,9,9,0,None,,0,9,9,9,12.876697291008895,,,,,,,,12.866142500002752,12.876697291008895,12.876697291008895,13.126663041010033,13.176176416003727,13.952919540999574,14.018672332997085,13.985757707996527,None,,,,,,,,001,001,2025-05-30_14h25.35.459,N170,2024.2.4,None,2025-05-30 14h25.45.215186 -0400,
images/objects/AHEELCUPS.jpg,original,object,10,10,0,None,,0,10,10,10,14.018672332997085,,,,,,,,14.007956415996887,14.018672332997085,14.018672332997085,14.281358041000203,14.318514750004397,15.355826500002877,15.409208458004287,15.378188957998645,None,,,,,,,,001,001,2025-05-30_14h25.35.459,N170,2024.2.4,None,2025-05-30 14h25.45.215186 -0400,
images/objects/Atoyslide.jpg,original,object,11,11,0,None,,0,11,11,11,15.409208458004287,,,,,,,,15.398232958003064,15.409208458004287,15.409208458004287,15.677190707996488,15.713195500007714,16.503095332998782,16.552702291010064,16.52217045800353,None,,,,,,,,001,001,2025-05-30_14h25.35.459,N170,2024.2.4,None,2025-05-30 14h25.45.215186 -0400,
images/faces/female/Kelly_Clarkson.jpg,original,face,12,12,0,None,,0,12,12,12,16.552702291010064,,,,,,,,16.542111500006285,16.552702291010064,16.552702291010064,16.8185561660066,16.850427124998532,17.614042125002015,17.66504612501012,17.637986916000955,None,,,,,,,,001,001,2025-05-30_14h25.35.459,N170,2024.2.4,None,2025-05-30 14h25.45.215186 -0400,
images/objects/26370116.thl.jpg,original,object,13,13,0,None,,0,13,13,13,17.66504612501012,,,,,,,,17.65430558299704,17.66504612501012,17.66504612501012,17.941996666006162,17.96542291600781,18.757225207999,18.798308875004295,18.768384583003353,None,,,,,,,,001,001,2025-05-30_14h25.35.459,N170,2024.2.4,None,2025-05-30 14h25.45.215186 -0400,
images/objects/ATIMECLO3.jpg,original,object,14,14,0,None,,0,14,14,14,18.798308875004295,,,,,,,,18.787716708000517,18.798308875004295,18.798308875004295,19.070485375006683,19.09286383300787,20.2290364579967,20.266365333009162,20.2407382500096,None,,,,,,,,001,001,2025-05-30_14h25.35.459,N170,2024.2.4,None,2025-05-30 14h25.45.215186 -0400,
images/objects/ASCREW24.jpg,original,object,15,15,0,None,,0,15,15,15,20.266365333009162,,,,,,,,20.25526112499938,20.266365333009162,20.266365333009162,20.541566875006538,20.561589999997523,21.53994391601009,21.568486916003167,21.548676500009606,None,,,,,,,,001,001,2025-05-30_14h25.35.459,N170,2024.2.4,None,2025-05-30 14h25.45.215186 -0400,
images/objects/23051010.thl.jpg,original,object,16,16,0,None,,0,16,16,16,21.568486916003167,,,,,,,,21.5568817910098,21.568486916003167,21.568486916003167,21.850584291009,21.870060583009035,22.866053707999527,22.881597250001505,22.866234500004794,None,,,,,,,,001,001,2025-05-30_14h25.35.459,N170,2024.2.4,None,2025-05-30 14h25.45.215186 -0400,
images/objects/driedprune.jpg,original,object,17,17,0,None,,0,17,17,17,22.881597250001505,,,,,,,,22.8721388749982,22.881597250001505,22.881597250001505,23.16059800000221,23.18378533300711,23.953214374996605,24.022740375003195,23.96465233300114,None,,,,,,,,001,001,2025-05-30_14h25.35.459,N170,2024.2.4,None,2025-05-30 14h25.45.215186 -0400,
images/faces/male/Bryan_Moynihan.jpg,original,face,18,18,0,None,,0,18,18,18,24.022740375003195,,,,,,,,24.01208154100459,24.022740375003195,24.022740375003195,24.259185500006424,24.318754874999286,25.083177041000454,25.15742412500549,25.130060875002528,None,,,,,,,,001,001,2025-05-30_14h25.35.459,N170,2024.2.4,None,2025-05-30 14h25.45.215186 -0400,
images/objects/22849344.thl.jpg,original,object,19,19,0,None,,0,19,19,19,25.15742412500549,,,,,,,,25.147318625007756,25.15742412500549,25.15742412500549,25.425172666000435,25.46153754100669,26.31852204100869,26.372847749997163,26.34326583299844,None,,,,,,,,001,001,2025-05-30_14h25.35.459,N170,2024.2.4,None,2025-05-30 14h25.45.215186 -0400,
images/objects/swingset.jpg,original,object,20,20,0,None,,0,20,20,20,26.372847749997163,,,,,,,,26.36172958300449,26.372847749997163,26.372847749997163,26.647184625006048,26.67126979099703,27.875862083004904,27.934432041001855,27.89878679100366,None,,,,,,,,001,001,2025-05-30_14h25.35.459,N170,2024.2.4,None,2025-05-30 14h25.45.215186 -0400,
images/objects/Achildsplaype.jpg,original,object,21,21,0,None,,0,21,21,21,27.934432041001855,,,,,,,,27.923394625002402,27.934432041001855,27.934432041001855,28.198567041006754,28.233545833005337,29.37685749999946,29.483936582997558,29.39789262499835,None,,,,,,,,001,001,2025-05-30_14h25.35.459,N170,2024.2.4,None,2025-05-30 14h25.45.215186 -0400,
images/faces/male/Paulo_Coelho.jpg,original,face,22,22,0,None,,0,22,22,22,29.483936582997558,,,,,,,,29.475349083004403,29.483936582997558,29.483936582997558,29.693658250005683,29.78097245800018,30.730004833007115,30.83349375000398,30.80763612499868,None,,,,,,,,001,001,2025-05-30_14h25.35.459,N170,2024.2.4,None,2025-05-30 14h25.45.215186 -0400,
images/objects/26372390.thl.jpg,original,object,23,23,0,None,,0,23,23,23,30.83349375000398,,,,,,,,30.82259729100042,30.83349375000398,30.83349375000398,31.110807083008694,31.132781166001223,32.01295766599651,32.06901029100118,32.02274133299943,None,,,,,,,,001,001,2025-05-30_14h25.35.459,N170,2024.2.4,None,2025-05-30 14h25.45.215186 -0400,
images/faces/female/Bonnie_Wright.jpg,original,face,24,24,0,None,,0,24,24,24,32.06901029100118,,,,,,,,32.05799204100913,32.06901029100118,32.06901029100118,32.322419832999,32.366248916005134,33.15343166599632,33.236657500005094,33.18867845799832,None,,,,,,,,001,001,2025-05-30_14h25.35.459,N170,2024.2.4,None,2025-05-30 14h25.45.215186 -0400,
images/faces/female/Mia_Hamm.jpg,original,face,25,25,0,2,0.6511825409979792,0,25,25,25,33.236657500005094,,,,,,,,33.2258212910092,33.236657500005094,33.236657500005094,33.48150062499917,33.530439333000686,34.37855608300015,34.443155540997395,34.41280550000374,2,0.6511825409979792,,,,,,,001,001,2025-05-30_14h25.35.459,N170,2024.2.4,None,2025-05-30 14h25.45.215186 -0400,
images/faces/male/PSY.jpg,original,face,26,26,0,None,,0,26,26,26,34.443155540997395,,,,,,,,34.4326339160034,34.443155540997395,34.443155540997395,34.717995458006044,34.74032837500272,35.904908750002505,35.94414649999817,35.927581249998184,None,,,,,,,,001,001,2025-05-30_14h25.35.459,N170,2024.2.4,None,2025-05-30 14h25.45.215186 -0400,
images/objects/8027086.thl.jpg,original,object,27,27,0,None,,0,27,27,27,35.94414649999817,,,,,,,,35.93513700000767,35.94414649999817,35.94414649999817,36.22438220800541,36.24871887500922,37.314763083006255,37.34850662499957,37.32642162500997,None,,,,,,,,001,001,2025-05-30_14h25.35.459,N170,2024.2.4,None,2025-05-30 14h25.45.215186 -0400,
images/objects/8256348.thl.jpg,original,object,28,28,0,None,,0,28,28,28,37.34850662499957,,,,,,,,37.33822795799642,37.34850662499957,37.34850662499957,37.62553691600624,37.64865716600616,38.46434083300119,38.49978683301015,38.477223541005515,None,,,,,,,,001,001,2025-05-30_14h25.35.459,N170,2024.2.4,None,2025-05-30 14h25.45.215186 -0400,
images/objects/Atennisball2.jpg,original,object,29,29,0,None,,0,29,29,29,38.49978683301015,,,,,,,,38.48958191600104,38.49978683301015,38.49978683301015,38.775525874996674,38.800217791009345,39.78288645800785,39.82272525000735,39.79434316600964,None,,,,,,,,001,001,2025-05-30_14h25.35.459,N170,2024.2.4,None,2025-05-30 14h25.45.215186 -0400,
images/objects/mixer.jpg,original,object,30,30,0,None,,0,30,30,30,39.82272525000735,,,,,,,,39.812434040999506,39.82272525000735,39.82272525000735,40.09425183299754,40.12629487500817,41.106635582997114,41.220915915997466,41.118206665996695,None,,,,,,,,001,001,2025-05-30_14h25.35.459,N170,2024.2.4,None,2025-05-30 14h25.45.215186 -0400,
images/faces/male/Prince_Harry.jpg,original,face,31,31,0,None,,0,31,31,31,41.220915915997466,,,,,,,,41.21226704100263,41.220915915997466,41.220915915997466,41.41662245799671,41.52171204100887,42.58064183300303,42.715767333007534,42.6663792909967,None,,,,,,,,001,001,2025-05-30_14h25.35.459,N170,2024.2.4,None,2025-05-30 14h25.45.215186 -0400,
images/objects/Abasket108.jpg,original,object,32,32,0,None,,0,32,32,32,42.715767333007534,,,,,,,,42.704838040997856,42.715767333007534,42.715767333007534,42.96568979100266,43.00912945800519,44.01753770800133,44.083038583004964,44.061409250003635,None,,,,,,,,001,001,2025-05-30_14h25.35.459,N170,2024.2.4,None,2025-05-30 14h25.45.215186 -0400,
images/objects/26373735.thl.jpg,original,object,33,33,0,None,,0,33,33,33,44.083038583004964,,,,,,,,44.07195329100068,44.083038583004964,44.083038583004964,44.364461916004075,44.388730582999415,45.36831845800043,45.403366416008794,45.38030879100552,None,,,,,,,,001,001,2025-05-30_14h25.35.459,N170,2024.2.4,None,2025-05-30 14h25.45.215186 -0400,
images/objects/23025535.thl.jpg,original,object,34,34,0,None,,0,34,34,34,45.403366416008794,,,,,,,,45.392547833005665,45.403366416008794,45.403366416008794,45.677504874998704,45.70195312499709,46.70690175000345,46.751721958004055,46.73076000000583,None,,,,,,,,001,001,2025-05-30_14h25.35.459,N170,2024.2.4,None,2025-05-30 14h25.45.215186 -0400,
images/objects/A_flower.jpg,original,object,35,35,0,None,,0,35,35,35,46.751721958004055,,,,,,,,46.740684625008726,46.751721958004055,46.751721958004055,47.02934841600654,47.05345837499772,48.27838029099803,48.3344331660046,48.291692458005855,None,,,,,,,,001,001,2025-05-30_14h25.35.459,N170,2024.2.4,None,2025-05-30 14h25.45.215186 -0400,
images/faces/female/Katie_Ledecky.jpg,original,face,36,36,0,None,,0,36,36,36,48.3344331660046,,,,,,,,48.32439075000002,48.3344331660046,48.3344331660046,48.593697415999486,48.63931933300046,49.62507129099686,49.73086495800817,49.64735912501055,None,,,,,,,,001,001,2025-05-30_14h25.35.459,N170,2024.2.4,None,2025-05-30 14h25.45.215186 -0400,
images/faces/female/Kate_Middleton.jpg,original,face,37,37,0,None,,0,37,37,37,49.73086495800817,,,,,,,,49.72221491600794,49.73086495800817,49.73086495800817,49.943874541000696,50.028579290999915,51.0593664580083,51.167576708001434,51.13649091600382,None,,,,,,,,001,001,2025-05-30_14h25.35.459,N170,2024.2.4,None,2025-05-30 14h25.45.215186 -0400,
images/faces/female/Katie_Ledecky.jpg,repeat,face,38,38,0,2,0.664344250006252,0,38,38,38,51.167576708001434,,,,,,,,51.157493040998816,51.167576708001434,51.167576708001434,51.43872558300791,51.46243970800424,52.42442412499804,52.48333979099698,52.44464804099698,2,0.664344250006252,,,,,,,001,001,2025-05-30_14h25.35.459,N170,2024.2.4,None,2025-05-30 14h25.45.215186 -0400,
images/faces/male/Nicholas_Sparks.jpg,original,face,39,39,0,None,,0,39,39,39,52.48333979099698,,,,,,,,52.47303695800656,52.48333979099698,52.48333979099698,52.74617129100079,52.78254050000396,53.693699249997735,53.76463583300938,53.717562707999605,None,,,,,,,,001,001,2025-05-30_14h25.35.459,N170,2024.2.4,None,2025-05-30 14h25.45.215186 -0400,
images/faces/male/John_Goodenough.jpg,original,face,40,40,0,None,,0,40,40,40,53.76463583300938,,,,,,,,53.75379120800062,53.76463583300938,53.76463583300938,54.01621708300081,54.06638879100501,54.945027041001595,55.00756529100181,54.98955341600231,None,,,,,,,,001,001,2025-05-30_14h25.35.459,N170,2024.2.4,None,2025-05-30 14h25.45.215186 -0400,
images/objects/22826832.thl.jpg,original,object,41,41,0,None,,0,41,41,41,55.00756529100181,,,,,,,,54.997430500006885,55.00756529100181,55.00756529100181,55.286262958004954,55.310192541001015,56.23162966599921,56.253209875008906,56.231807415999356,None,,,,,,,,001,001,2025-05-30_14h25.35.459,N170,2024.2.4,None,2025-05-30 14h25.45.215186 -0400,
images/objects/8026084.thl.jpg,original,object,42,42,0,None,,0,42,42,42,56.253209875008906,,,,,,,,56.24336370801029,56.253209875008906,56.253209875008906,56.526471625009435,56.54571700000088,57.51285225000174,57.56568137501017,57.53667254099855,None,,,,,,,,001,001,2025-05-30_14h25.35.459,N170,2024.2.4,None,2025-05-30 14h25.45.215186 -0400,
images/objects/hairbarette.jpg,original,object,43,43,0,None,,0,43,43,43,57.56568137501017,,,,,,,,57.55483645800268,57.56568137501017,57.56568137501017,57.83934879100707,57.86412012499932,58.715749124996364,58.77154183300445,58.73961341600807,None,,,,,,,,001,001,2025-05-30_14h25.35.459,N170,2024.2.4,None,2025-05-30 14h25.45.215186 -0400,
images/objects/Atoyturtle.jpg,original,object,44,44,0,None,,0,44,44,44,58.77154183300445,,,,,,,,58.76043812499847,58.77154183300445,58.77154183300445,59.04359812500479,59.06711108300078,59.97010270800092,60.031690916002844,59.993685000008554,None,,,,,,,,001,001,2025-05-30_14h25.35.459,N170,2024.2.4,None,2025-05-30 14h25.45.215186 -0400,
images/faces/male/Rick_Riordan.jpg,original,face,45,45,0,None,,0,45,45,45,60.031690916002844,,,,,,,,60.021520249996684,60.031690916002844,60.031690916002844,60.28739008300181,60.33429875000729,61.30394145799801,61.358550832999754,61.33511600000202,None,,,,,,,,001,001,2025-05-30_14h25.35.459,N170,2024.2.4,None,2025-05-30 14h25.45.215186 -0400,
images/objects/bagelslicer.jpg,original,object,46,46,0,None,,0,46,46,46,61.358550832999754,,,,,,,,61.348768791009206,61.358550832999754,61.358550832999754,61.63048604100186,61.66034416599723,62.582818750001024,62.63116625000839,62.59488312499889,None,,,,,,,,001,001,2025-05-30_14h25.35.459,N170,2024.2.4,None,2025-05-30 14h25.45.215186 -0400,
images/faces/female/Paula_Hawkins.jpg,original,face,47,47,0,None,,0,47,47,47,62.63116625000839,,,,,,,,62.62082629100769,62.63116625000839,62.63116625000839,62.88938279100694,62.93462354100484,64.0258057500032,64.12812645800295,64.04864408299909,None,,,,,,,,001,001,2025-05-30_14h25.35.459,N170,2024.2.4,None,2025-05-30 14h25.45.215186 -0400,
images/faces/female/Laverne_Cox.jpg,original,face,48,48,0,None,,0,48,48,48,64.12812645800295,,,,,,,,64.11743366600422,64.12812645800295,64.12812645800295,64.3420977909991,64.42869883299863,65.39933374999964,65.5065008750098,65.47277029100223,None,,,,,,,,001,001,2025-05-30_14h25.35.459,N170,2024.2.4,None,2025-05-30 14h25.45.215186 -0400,
images/faces/male/Justin_Trudeau.jpg,original,face,49,49,0,None,,0,49,49,49,65.5065008750098,,,,,,,,65.49568862500018,65.5065008750098,65.5065008750098,65.77089975000126,65.80475329099863,66.79225062500336,66.84598416600784,66.814188208009,None,,,,,,,,001,001,2025-05-30_14h25.35.459,N170,2024.2.4,None,2025-05-30 14h25.45.215186 -0400,
images/objects/ferrywheeltoy.jpg,original,object,50,50,0,None,,0,50,50,50,66.84598416600784,,,,,,,,66.83526433299994,66.84598416600784,66.84598416600784,67.11385891599639,67.1500795000029,68.27995683300833,68.33037329099898,68.30360970800393,None,,,,,,,,001,001,2025-05-30_14h25.35.459,N170,2024.2.4,None,2025-05-30 14h25.45.215186 -0400,
images/objects/pinecone02.jpg,original,object,51,51,0,None,,0,51,51,51,68.33037329099898,,,,,,,,68.32007704100397,68.33037329099898,68.33037329099898,68.6072945830092,68.63181312500092,69.77216845800285,69.8189139580063,69.79352545800793,None,,,,,,,,001,001,2025-05-30_14h25.35.459,N170,2024.2.4,None,2025-05-30 14h25.45.215186 -0400,
images/objects/ACOWBOYH3.jpg,original,object,52,52,0,None,,0,52,52,52,69.8189139580063,,,,,,,,69.80898187500134,69.8189139580063,69.8189139580063,70.08899058299721,70.12292712500494,71.17234616600035,71.22548716599704,71.19653845799621,None,,,,,,,,001,001,2025-05-30_14h25.35.459,N170,2024.2.4,None,2025-05-30 14h25.45.215186 -0400,
images/faces/female/Kelly_Clarkson.jpg,repeat,face,53,53,0,2,0.5231494170002406,0,53,53,53,71.22548716599704,,,,,,,,71.21525166599895,71.22548716599704,71.22548716599704,71.49127141600184,71.52747404100955,72.57163879100699,72.62100737499713,72.59371233300772,2,0.5231494170002406,,,,,,,001,001,2025-05-30_14h25.35.459,N170,2024.2.4,None,2025-05-30 14h25.45.215186 -0400,
images/faces/female/Rachel_Maddow.jpg,original,face,54,54,0,None,,0,54,54,54,72.62100737499713,,,,,,,,72.61009412500425,72.62100737499713,72.62100737499713,72.89429070800543,72.91909662500257,73.71510595800646,73.79217933300242,73.73707991599804,None,,,,,,,,001,001,2025-05-30_14h25.35.459,N170,2024.2.4,None,2025-05-30 14h25.45.215186 -0400,
images/faces/male/Dak_Prescott.jpg,original,face,55,55,0,None,,0,55,55,55,73.79217933300242,,,,,,,,73.78145487500296,73.79217933300242,73.79217933300242,74.0335870830022,74.09165850000863,74.91807183300261,74.98282345800544,74.96433883300051,None,,,,,,,,001,001,2025-05-30_14h25.35.459,N170,2024.2.4,None,2025-05-30 14h25.45.215186 -0400,
images/objects/26439913.thl.jpg,original,object,56,56,0,None,,0,56,56,56,74.98282345800544,,,,,,,,74.9717194160039,74.98282345800544,74.98282345800544,75.2684588330012,75.28053520800313,76.24469841600512,76.2634085000027,76.24479062500177,None,,,,,,,,001,001,2025-05-30_14h25.35.459,N170,2024.2.4,None,2025-05-30 14h25.45.215186 -0400,
images/objects/26423905.thl.jpg,original,object,57,57,0,None,,0,57,57,57,76.2634085000027,,,,,,,,76.25309399999969,76.2634085000027,76.2634085000027,76.5475328330067,76.55935454100836,77.4921988749993,77.53032166601042,77.50331912499678,None,,,,,,,,001,001,2025-05-30_14h25.35.459,N170,2024.2.4,None,2025-05-30 14h25.45.215186 -0400,
images/faces/female/Veronica_Roth.jpg,original,face,58,58,0,None,,0,58,58,58,77.53032166601042,,,,,,,,77.51955116599856,77.53032166601042,77.53032166601042,77.80309750000015,77.82322687499982,78.72230820800178,78.77993191599671,78.74083570799849,None,,,,,,,,001,001,2025-05-30_14h25.35.459,N170,2024.2.4,None,2025-05-30 14h25.45.215186 -0400,
images/faces/female/Oprah_Winfrey.jpg,original,face,59,59,0,None,,0,59,59,59,78.77993191599671,,,,,,,,78.76971550000599,78.77993191599671,78.77993191599671,79.04074404100538,79.0771021660039,80.2175882080046,80.2762392910081,80.24961374999839,None,,,,,,,,001,001,2025-05-30_14h25.35.459,N170,2024.2.4,None,2025-05-30 14h25.45.215186 -0400,
images/objects/AALARMSY6.jpg,original,object,60,60,0,None,,0,60,60,60,80.2762392910081,,,,,,,,80.26502358300786,80.2762392910081,80.2762392910081,80.5465931660001,80.58190858300077,81.73206799999753,81.776550916009,81.75191824999638,None,,,,,,,,001,001,2025-05-30_14h25.35.459,N170,2024.2.4,None,2025-05-30 14h25.45.215186 -0400,
images/objects/Acartofgroce3.jpg,original,object,61,61,0,None,,0,61,61,61,81.776550916009,,,,,,,,81.76522370800376,81.776550916009,81.776550916009,82.04906883300282,82.0798709160008,83.08097799999814,83.10965145799855,83.09288604100584,None,,,,,,,,001,001,2025-05-30_14h25.35.459,N170,2024.2.4,None,2025-05-30 14h25.45.215186 -0400,
images/objects/ATOILROL2.jpg,original,object,62,62,0,None,,0,62,62,62,83.10965145799855,,,,,,,,83.0998443330027,83.10965145799855,83.10965145799855,83.38816837500781,83.41063770800247,84.2215838330012,84.2801014160068,84.2328222500073,None,,,,,,,,001,001,2025-05-30_14h25.35.459,N170,2024.2.4,None,2025-05-30 14h25.45.215186 -0400,
images/faces/male/David_Guetta.jpg,original,face,63,63,0,None,,0,63,63,63,84.2801014160068,,,,,,,,84.26956204100861,84.2801014160068,84.2801014160068,84.5300065830088,84.57682004100934,85.56662662500457,85.6200047910097,85.6014811250061,None,,,,,,,,001,001,2025-05-30_14h25.35.459,N170,2024.2.4,None,2025-05-30 14h25.45.215186 -0400,
images/objects/hottub.jpg,original,object,64,64,0,None,,0,64,64,64,85.6200047910097,,,,,,,,85.60998733300949,85.6200047910097,85.6200047910097,85.89692908299912,85.9228678750078,87.04703112501011,87.08909508300712,87.05771083300351,None,,,,,,,,001,001,2025-05-30_14h25.35.459,N170,2024.2.4,None,2025-05-30 14h25.45.215186 -0400,
images/objects/Ascarf7.jpg,original,object,65,65,0,None,,0,65,65,65,87.08909508300712,,,,,,,,87.07834895800625,87.08909508300712,87.08909508300712,87.36194524999883,87.38330962500186,88.51941487500153,88.56038333300967,88.53141937500914,None,,,,,,,,001,001,2025-05-30_14h25.35.459,N170,2024.2.4,None,2025-05-30 14h25.45.215186 -0400,
images/faces/male/Eddie_Murphy.jpg,original,face,66,66,0,None,,0,66,66,66,88.56038333300967,,,,,,,,88.54950858300435,88.56038333300967,88.56038333300967,88.83759937500872,88.85872800000652,89.60345041600522,89.64997374999803,89.61501104100898,None,,,,,,,,001,001,2025-05-30_14h25.35.459,N170,2024.2.4,None,2025-05-30 14h25.45.215186 -0400,
images/objects/Aboardgame6.jpg,original,object,67,67,0,None,,0,67,67,67,89.64997374999803,,,,,,,,89.63911933300551,89.64997374999803,89.64997374999803,89.91530458300258,89.95170595801028,91.07001404100447,91.11046337500738,91.09198341600131,None,,,,,,,,001,001,2025-05-30_14h25.35.459,N170,2024.2.4,None,2025-05-30 14h25.45.215186 -0400,
images/objects/26424784.thl.jpg,original,object,68,68,0,None,,0,68,68,68,91.11046337500738,,,,,,,,91.10080066599767,91.11046337500738,91.11046337500738,91.39666108301026,91.40749858300842,92.25410979099979,92.35355895799876,92.26376200000232,None,,,,,,,,001,001,2025-05-30_14h25.35.459,N170,2024.2.4,None,2025-05-30 14h25.45.215186 -0400,
images/faces/male/Trevor_Noah.jpg,original,face,69,69,0,None,,0,69,69,69,92.35355895799876,,,,,,,,92.34490912500769,92.35355895799876,92.35355895799876,92.56067808299849,92.64871054100513,93.62325033301022,93.73552075000771,93.70302008300496,None,,,,,,,,001,001,2025-05-30_14h25.35.459,N170,2024.2.4,None,2025-05-30 14h25.45.215186 -0400,
images/objects/26432217.thl.jpg,original,object,70,70,0,None,,0,70,70,70,93.73552075000771,,,,,,,,93.7249609999999,93.73552075000771,93.73552075000771,94.00555779100978,94.0416939160059,95.02804795801057,95.13379312500183,95.05016845800856,None,,,,,,,,001,001,2025-05-30_14h25.35.459,N170,2024.2.4,None,2025-05-30 14h25.45.215186 -0400,
images/faces/female/Demi_Lovato.jpg,original,face,71,71,0,None,,0,71,71,71,95.13379312500183,,,,,,,,95.12448033300461,95.13379312500183,95.13379312500183,95.34811933300807,95.43180808299803,96.49325754100573,96.66956354099966,96.56727133299864,None,,,,,,,,001,001,2025-05-30_14h25.35.459,N170,2024.2.4,None,2025-05-30 14h25.45.215186 -0400,
images/faces/female/Lorde.jpg,original,face,72,72,0,None,,0,72,72,72,96.66956354099966,,,,,,,,96.66105358299683,96.66956354099966,96.66956354099966,96.86646591599856,96.97034295799676,97.65167012500751,97.78109725000104,97.74058116599917,None,,,,,,,,001,001,2025-05-30_14h25.35.459,N170,2024.2.4,None,2025-05-30 14h25.45.215186 -0400,
images/objects/Apaintroller2.jpg,original,object,73,73,0,None,,0,73,73,73,97.78109725000104,,,,,,,,97.77118329099903,97.78109725000104,97.78109725000104,98.03858058300102,98.07895875000395,99.04657337500248,99.17334166599903,99.08135720800783,None,,,,,,,,001,001,2025-05-30_14h25.35.459,N170,2024.2.4,None,2025-05-30 14h25.45.215186 -0400,
images/faces/female/Queen_Elizabeth.jpg,original,face,74,74,0,None,,0,74,74,74,99.17334166599903,,,,,,,,99.16466329099785,99.17334166599903,99.17334166599903,99.37843087500369,99.4657924159983,100.51538329100003,100.62414270800946,100.59624483301013,None,,,,,,,,001,001,2025-05-30_14h25.35.459,N170,2024.2.4,None,2025-05-30 14h25.45.215186 -0400,
images/objects/26466344.thl.jpg,original,object,75,75,0,None,,0,75,75,75,100.62414270800946,,,,,,,,100.61430641599873,100.62414270800946,100.62414270800946,100.90066758300236,100.92546354100341,101.81823904100747,101.86789404100273,101.83025020800414,None,,,,,,,,001,001,2025-05-30_14h25.35.459,N170,2024.2.4,None,2025-05-30 14h25.45.215186 -0400,
images/faces/male/Tom_Hanks.jpg,repeat,face,76,76,0,None,,0,76,76,76,101.86789404100273,,,,,,,,101.85756216599839,101.86789404100273,101.86789404100273,102.1276892080059,102.16376083300565,102.90768150000076,102.98785870800202,102.94066766600008,None,,,,,,,,001,001,2025-05-30_14h25.35.459,N170,2024.2.4,None,2025-05-30 14h25.45.215186 -0400,
images/faces/female/Sonya_Sotomayor.jpg,original,face,77,77,0,None,,0,77,77,77,102.98785870800202,,,,,,,,102.97707845800323,102.98785870800202,102.98785870800202,103.2396862500027,103.28596112500236,104.01570795800944,104.09651504100475,104.05143754099845,None,,,,,,,,001,001,2025-05-30_14h25.35.459,N170,2024.2.4,None,2025-05-30 14h25.45.215186 -0400,
images/faces/female/Margot_Robbie.jpg,original,face,78,78,0,None,,0,78,78,78,104.09651504100475,,,,,,,,104.08553166600177,104.09651504100475,104.09651504100475,104.34745058300905,104.39534891600488,105.4330249580089,105.52110804100812,105.47757675001048,None,,,,,,,,001,001,2025-05-30_14h25.35.459,N170,2024.2.4,None,2025-05-30 14h25.45.215186 -0400,
images/faces/female/Meghan_Rapinoe.jpg,original,face,79,79,0,None,,0,79,79,79,105.52110804100812,,,,,,,,105.51051395799732,105.52110804100812,105.52110804100812,105.7722996250086,105.81935154100938,106.69864154100651,106.8123517500062,106.74324008300027,None,,,,,,,,001,001,2025-05-30_14h25.35.459,N170,2024.2.4,None,2025-05-30 14h25.45.215186 -0400,
images/faces/female/Mary_Kate_Olsen.jpg,original,face,80,80,0,None,,0,80,80,80,106.8123517500062,,,,,,,,106.80374791599752,106.8123517500062,106.8123517500062,107.03748325000925,107.10549833301047,108.16410008299863,108.25947029099916,108.22140629100613,None,,,,,,,,001,001,2025-05-30_14h25.35.459,N170,2024.2.4,None,2025-05-30 14h25.45.215186 -0400,
images/objects/ARASPBER2.jpg,original,object,81,81,0,None,,0,81,81,81,108.25947029099916,,,,,,,,108.24827920799726,108.25947029099916,108.25947029099916,108.52233820800029,108.55718554100895,109.53300441600732,109.64389750000555,109.55629941599909,None,,,,,,,,001,001,2025-05-30_14h25.35.459,N170,2024.2.4,None,2025-05-30 14h25.45.215186 -0400,
images/faces/male/Mark_Zuckerberg.jpg,original,face,82,82,0,None,,0,82,82,82,109.64389750000555,,,,,,,,109.6353142500011,109.64389750000555,109.64389750000555,109.85031070800324,109.94373208300385,111.09234054099943,111.22868383300374,111.17151787500188,None,,,,,,,,001,001,2025-05-30_14h25.35.459,N170,2024.2.4,None,2025-05-30 14h25.45.215186 -0400,
images/faces/male/George_Clooney.jpg,original,face,83,83,0,None,,0,83,83,83,111.22868383300374,,,,,,,,111.2178827500029,111.22868383300374,111.22868383300374,111.47230108300573,111.52464358300494,112.47765166600584,112.56898029100557,112.52358550000645,None,,,,,,,,001,001,2025-05-30_14h25.35.459,N170,2024.2.4,None,2025-05-30 14h25.45.215186 -0400,
images/faces/female/Andrea_Russet.jpg,original,face,84,84,0,None,,0,84,84,84,112.56898029100557,,,,,,,,112.55891125000198,112.56898029100557,112.56898029100557,112.8236845000065,112.87152737499855,113.65924779100169,113.73813675000565,113.69499708300282,None,,,,,,,,001,001,2025-05-30_14h25.35.459,N170,2024.2.4,None,2025-05-30 14h25.45.215186 -0400,
images/faces/female/Iggy_Azalea.jpg,original,face,85,85,0,2,0.9534673750022193,0,85,85,85,113.73813675000565,,,,,,,,113.72718354100653,113.73813675000565,113.73813675000565,113.99697066600493,114.04197541601025,115.03969700000016,115.10678487500991,115.07157391600776,2,0.9534673750022193,,,,,,,001,001,2025-05-30_14h25.35.459,N170,2024.2.4,None,2025-05-30 14h25.45.215186 -0400,
images/faces/male/Nick_Jonas.jpg,original,face,86,86,0,None,,0,86,86,86,115.10678487500991,,,,,,,,115.09833879100916,115.10678487500991,115.10678487500991,115.36874299999909,115.4036366250075,116.45128970799851,116.56711458299833,116.47473495799932,None,,,,,,,,001,001,2025-05-30_14h25.35.459,N170,2024.2.4,None,2025-05-30 14h25.45.215186 -0400,
images/faces/female/Hillary_Clinton.jpg,original,face,87,87,0,None,,0,87,87,87,116.56711458299833,,,,,,,,116.55848345800769,116.56711458299833,116.56711458299833,116.77322170800471,116.86340145800204,117.7321251250105,117.85682775000168,117.82080779100943,None,,,,,,,,001,001,2025-05-30_14h25.35.459,N170,2024.2.4,None,2025-05-30 14h25.45.215186 -0400,
images/faces/female/Gwen_Stefani.jpg,original,face,88,88,0,None,,0,88,88,88,117.85682775000168,,,,,,,,117.84583920800651,117.85682775000168,117.85682775000168,118.11600562500826,118.16259854100645,119.31425933299761,119.38254295800289,119.35057758299808,None,,,,,,,,001,001,2025-05-30_14h25.35.459,N170,2024.2.4,None,2025-05-30 14h25.45.215186 -0400,
images/objects/hurdle.jpg,original,object,89,89,0,None,,0,89,89,89,119.38254295800289,,,,,,,,119.37182125000982,119.38254295800289,119.38254295800289,119.65446416600025,119.680000458,120.77477237500716,120.81885316599801,120.79560312500689,None,,,,,,,,001,001,2025-05-30_14h25.35.459,N170,2024.2.4,None,2025-05-30 14h25.45.215186 -0400,
images/objects/26379612.thl.jpg,original,object,90,90,0,None,,0,90,90,90,120.81885316599801,,,,,,,,120.80786733300192,120.81885316599801,120.81885316599801,121.09439804100839,121.11726108299627,122.03151795800659,122.09813908299839,122.043357750008,None,,,,,,,,001,001,2025-05-30_14h25.35.459,N170,2024.2.4,None,2025-05-30 14h25.45.215186 -0400,
images/faces/female/Addison_Rae.jpg,original,face,91,91,0,2,0.6169833750027465,0,91,91,91,122.09813908299839,,,,,,,,122.08768087500357,122.09813908299839,122.09813908299839,122.33784666600695,122.39869483299844,123.39791137501015,123.4883458330005,123.45440791599685,2,0.6169833750027465,,,,,,,001,001,2025-05-30_14h25.35.459,N170,2024.2.4,None,2025-05-30 14h25.45.215186 -0400,
images/objects/golf-ball.JPG,original,object,92,92,0,None,,0,92,92,92,123.4883458330005,,,,,,,,123.47731595800724,123.4883458330005,123.4883458330005,123.75272470799973,123.788626708003,124.91555341600906,124.97339333299897,124.93964475000394,None,,,,,,,,001,001,2025-05-30_14h25.35.459,N170,2024.2.4,None,2025-05-30 14h25.45.215186 -0400,
images/objects/ACOCONUT2.jpg,original,object,93,93,0,None,,0,93,93,93,124.97339333299897,,,,,,,,124.96259049999935,124.97339333299897,124.97339333299897,125.23516304099758,125.27242716599721,126.07341487500526,126.12597037499654,126.09554708300857,None,,,,,,,,001,001,2025-05-30_14h25.35.459,N170,2024.2.4,None,2025-05-30 14h25.45.215186 -0400,
images/objects/ACUTBOAR2.jpg,original,object,94,94,0,None,,0,94,94,94,126.12597037499654,,,,,,,,126.11507300000812,126.12597037499654,126.12597037499654,126.39447529100289,126.42838729100185,127.36710304100416,127.407476916007,127.38689787501062,None,,,,,,,,001,001,2025-05-30_14h25.35.459,N170,2024.2.4,None,2025-05-30 14h25.45.215186 -0400,
images/objects/driedprune.jpg,repeat,object,95,95,0,2,1.3329341250064317,0,95,95,95,127.407476916007,,,,,,,,127.39814333300455,127.407476916007,127.407476916007,127.68207529099891,127.70350391599641,128.82244362500205,128.86115329099994,128.83379166600935,2,1.3329341250064317,,,,,,,001,001,2025-05-30_14h25.35.459,N170,2024.2.4,None,2025-05-30 14h25.45.215186 -0400,
images/faces/female/Alicia_Keys.jpg,original,face,96,96,0,None,,0,96,96,96,128.86115329099994,,,,,,,,128.85143850000168,128.86115329099994,128.86115329099994,129.1397984159994,129.16560758301057,130.1457863329997,130.1752613330027,130.14639237499796,None,,,,,,,,001,001,2025-05-30_14h25.35.459,N170,2024.2.4,None,2025-05-30 14h25.45.215186 -0400,
images/faces/male/David_Guetta.jpg,repeat,face,97,97,0,None,,0,97,97,97,130.1752613330027,,,,,,,,130.16556041600415,130.1752613330027,130.1752613330027,130.44755949999671,130.4723867080029,131.4885605830059,131.5526711249986,131.51128175000485,None,,,,,,,,001,001,2025-05-30_14h25.35.459,N170,2024.2.4,None,2025-05-30 14h25.45.215186 -0400,
images/faces/male/Benedict_Cumberbatch.jpg,original,face,98,98,0,None,,0,98,98,98,131.5526711249986,,,,,,,,131.54265316600504,131.5526711249986,131.5526711249986,131.80816354100534,131.85464662499726,132.70191299999715,132.76848737499677,132.7336009999999,None,,,,,,,,001,001,2025-05-30_14h25.35.459,N170,2024.2.4,None,2025-05-30 14h25.45.215186 -0400,
images/objects/clawhairclips.jpg,original,object,99,99,0,None,,0,99,99,99,132.76848737499677,,,,,,,,132.75723600000492,132.76848737499677,132.76848737499677,133.03065479100042,133.0662242910039,134.1349626250012,134.20406587500474,134.15839062500163,None,,,,,,,,001,001,2025-05-30_14h25.35.459,N170,2024.2.4,None,2025-05-30 14h25.45.215186 -0400,
images/faces/female/Julianne_Moore.jpg,original,face,100,100,0,None,,0,100,100,100,134.20406587500474,,,,,,,,134.19438983300643,134.20406587500474,134.20406587500474,134.46120150000206,134.50873687501007,135.31127616600133,135.36939600000915,135.33488045800186,None,,,,,,,,001,001,2025-05-30_14h25.35.459,N170,2024.2.4,None,2025-05-30 14h25.45.215186 -0400,
images/objects/Chevypickup.jpg,original,object,101,101,0,None,,0,101,101,101,135.36939600000915,,,,,,,,135.3590266250103,135.36939600000915,135.36939600000915,135.63194183300948,135.6694690000004,136.4699548750068,136.52044570799626,136.4916122910072,None,,,,,,,,001,001,2025-05-30_14h25.35.459,N170,2024.2.4,None,2025-05-30 14h25.45.215186 -0400,
images/objects/Heatpad.jpg,original,object,102,102,0,None,,0,102,102,102,136.52044570799626,,,,,,,,136.50964975000534,136.52044570799626,136.52044570799626,136.79239808300918,136.81547850000788,137.71127145799983,137.80873679100478,137.7234230000031,None,,,,,,,,001,001,2025-05-30_14h25.35.459,N170,2024.2.4,None,2025-05-30 14h25.45.215186 -0400,
images/faces/male/Doug_McMillon.jpg,original,face,103,103,0,None,,0,103,103,103,137.80873679100478,,,,,,,,137.80005074999644,137.80873679100478,137.80873679100478,138.01988687500125,138.1070916660101,139.18292466600542,139.30665800000133,139.26183691600454,None,,,,,,,,001,001,2025-05-30_14h25.35.459,N170,2024.2.4,None,2025-05-30 14h25.45.215186 -0400,
images/faces/male/Connor_McGregor.jpg,original,face,104,104,0,None,,0,104,104,104,139.30665800000133,,,,,,,,139.29578037500323,139.30665800000133,139.30665800000133,139.56698166600836,139.6024382080068,140.7651960410003,140.80701250000857,140.7898738750082,None,,,,,,,,001,001,2025-05-30_14h25.35.459,N170,2024.2.4,None,2025-05-30 14h25.45.215186 -0400,
images/objects/22883664.thl.jpg,original,object,105,105,0,None,,0,105,105,105,140.80701250000857,,,,,,,,140.7975651250017,140.80701250000857,140.80701250000857,141.08848670800216,141.11127854100778,142.1784858750034,142.23986625000543,142.18805216600595,None,,,,,,,,001,001,2025-05-30_14h25.35.459,N170,2024.2.4,None,2025-05-30 14h25.45.215186 -0400,
images/faces/female/Rihanna.jpg,original,face,106,106,0,None,,0,106,106,106,142.23986625000543,,,,,,,,142.22913991600217,142.23986625000543,142.23986625000543,142.4850062080077,142.5417082500062,143.2613743749971,143.33230179100065,143.3054408330063,None,,,,,,,,001,001,2025-05-30_14h25.35.459,N170,2024.2.4,None,2025-05-30 14h25.45.215186 -0400,
images/objects/Aallterrain10.jpg,original,object,107,107,0,None,,0,107,107,107,143.33230179100065,,,,,,,,143.3215656250104,143.33230179100065,143.33230179100065,143.60621141600132,143.63081862500985,144.80958741600625,144.9240858330013,144.82204608300526,None,,,,,,,,001,001,2025-05-30_14h25.35.459,N170,2024.2.4,None,2025-05-30 14h25.45.215186 -0400,
images/faces/male/Jay_Leno.jpg,original,face,108,108,0,None,,0,108,108,108,144.9240858330013,,,,,,,,144.91553945800115,144.9240858330013,144.9240858330013,145.11910516599892,145.22111399999994,146.18583291600225,146.35338087500713,146.27780154100037,None,,,,,,,,001,001,2025-05-30_14h25.35.459,N170,2024.2.4,None,2025-05-30 14h25.45.215186 -0400,
images/faces/female/Bethenny_Frankel.jpg,original,face,109,109,0,2,0.598257374993409,0,109,109,109,146.35338087500713,,,,,,,,146.342780166,146.35338087500713,146.35338087500713,146.57431266600906,146.65001183300046,147.76095958299993,147.8606756250083,147.83063108300848,2,0.598257374993409,,,,,,,001,001,2025-05-30_14h25.35.459,N170,2024.2.4,None,2025-05-30 14h25.45.215186 -0400,
images/objects/8253370.thl.jpg,original,object,110,110,0,None,,0,110,110,110,147.8606756250083,,,,,,,,147.8496729160106,147.8606756250083,147.8606756250083,148.13418320800702,148.15782520800713,149.01387537500705,149.06968625000445,149.03859391600417,None,,,,,,,,001,001,2025-05-30_14h25.35.459,N170,2024.2.4,None,2025-05-30 14h25.45.215186 -0400,
images/objects/ACURLRIB2.jpg,original,object,111,111,0,None,,0,111,111,111,149.06968625000445,,,,,,,,149.0587582080043,149.06968625000445,149.06968625000445,149.3417443750077,149.36447950000002,150.09298166600638,150.21128041599877,150.10543595800118,None,,,,,,,,001,001,2025-05-30_14h25.35.459,N170,2024.2.4,None,2025-05-30 14h25.45.215186 -0400,
images/faces/male/Nathan_Chen.jpg,original,face,112,112,0,None,,0,112,112,112,150.21128041599877,,,,,,,,150.20262162500876,150.21128041599877,150.21128041599877,150.3991373750032,150.5102692500077,151.3680890000105,151.52820937499928,151.46660412500205,None,,,,,,,,001,001,2025-05-30_14h25.35.459,N170,2024.2.4,None,2025-05-30 14h25.45.215186 -0400,
images/faces/male/Jim_Gaffigan.jpg,original,face,113,113,0,None,,0,113,113,113,151.52820937499928,,,,,,,,151.5174260000058,151.52820937499928,151.52820937499928,151.76764058299887,151.8268080830021,152.9208965410071,153.0114829160011,152.97797612501017,None,,,,,,,,001,001,2025-05-30_14h25.35.459,N170,2024.2.4,None,2025-05-30 14h25.45.215186 -0400,
images/objects/moto.jpg,original,object,114,114,0,2,0.6597615829959977,0,114,114,114,153.0114829160011,,,,,,,,153.00044158300443,153.0114829160011,153.0114829160011,153.2777932080062,153.31323133299884,154.37572308300878,154.43990329100052,154.39848800000618,2,0.6597615829959977,,,,,,,001,001,2025-05-30_14h25.35.459,N170,2024.2.4,None,2025-05-30 14h25.45.215186 -0400,
images/faces/male/Conan_O_Brien.jpg,original,face,115,115,0,None,,0,115,115,115,154.43990329100052,,,,,,,,154.42878016601026,154.43990329100052,154.43990329100052,154.69949879100022,154.7342707909993,155.64333733300737,155.71041104100004,155.67846712500614,None,,,,,,,,001,001,2025-05-30_14h25.35.459,N170,2024.2.4,None,2025-05-30 14h25.45.215186 -0400,
images/objects/ARATTLE.jpg,original,object,116,116,0,None,,0,116,116,116,155.71041104100004,,,,,,,,155.7006150829984,155.71041104100004,155.71041104100004,155.98159000001033,156.0051979580021,157.184096958008,157.2370926660078,157.2060917080089,None,,,,,,,,001,001,2025-05-30_14h25.35.459,N170,2024.2.4,None,2025-05-30 14h25.45.215186 -0400,
images/faces/female/Maggie_Smith.jpg,original,face,117,117,0,None,,0,117,117,117,157.2370926660078,,,,,,,,157.22645000000193,157.2370926660078,157.2370926660078,157.51039233300253,157.53432791600062,158.71423429100832,158.76806724999915,158.73466191600892,None,,,,,,,,001,001,2025-05-30_14h25.35.459,N170,2024.2.4,None,2025-05-30 14h25.45.215186 -0400,
images/objects/ANWSPAPER.jpg,original,object,118,118,0,None,,0,118,118,118,158.76806724999915,,,,,,,,158.75720129100955,158.76806724999915,158.76806724999915,159.03614754100272,159.07209612500446,160.21099841600517,160.28888583299704,160.24040070800402,None,,,,,,,,001,001,2025-05-30_14h25.35.459,N170,2024.2.4,None,2025-05-30 14h25.45.215186 -0400,
images/faces/male/Snoop_Dogg.jpg,original,face,119,119,0,2,0.4497810000029858,0,119,119,119,160.28888583299704,,,,,,,,160.27828345799935,160.28888583299704,160.28888583299704,160.5429198750062,160.5913825000025,161.35868041600042,161.4266348329984,161.39291583299928,2,0.4497810000029858,,,,,,,001,001,2025-05-30_14h25.35.459,N170,2024.2.4,None,2025-05-30 14h25.45.215186 -0400,
images/objects/ABACKHOE2.jpg,original,object,120,120,0,None,,0,120,120,120,161.4266348329984,,,,,,,,161.41551366599742,161.4266348329984,161.4266348329984,161.69147579099808,161.72656441600702,162.680760208008,162.71688029100187,162.70092383300653,None,,,,,,,,001,001,2025-05-30_14h25.35.459,N170,2024.2.4,None,2025-05-30 14h25.45.215186 -0400,
images/objects/26425370.thl.jpg,original,object,121,121,0,2,0.7399217079946538,0,121,121,121,162.71688029100187,,,,,,,,162.7063671250071,162.71688029100187,162.71688029100187,163.00293300001067,163.01440658301,163.76093529100763,163.7992337080068,163.77146195800742,2,0.7399217079946538,,,,,,,001,001,2025-05-30_14h25.35.459,N170,2024.2.4,None,2025-05-30 14h25.45.215186 -0400,
images/faces/male/Usher.jpg,original,face,122,122,0,None,,0,122,122,122,163.7992337080068,,,,,,,,163.78873112500878,163.7992337080068,163.7992337080068,164.07456183299655,164.09803495800588,164.98388112500834,165.0149402500101,164.99592770800518,None,,,,,,,,001,001,2025-05-30_14h25.35.459,N170,2024.2.4,None,2025-05-30 14h25.45.215186 -0400,
images/objects/Atoyball.jpg,original,object,123,123,0,None,,0,123,123,123,165.0149402500101,,,,,,,,165.0042649579991,165.0149402500101,165.0149402500101,165.29608341600397,165.3213458750106,166.38435616600327,166.43924062499718,166.3949757500086,None,,,,,,,,001,001,2025-05-30_14h25.35.459,N170,2024.2.4,None,2025-05-30 14h25.45.215186 -0400,
images/faces/male/Eminem.jpg,original,face,124,124,0,None,,0,124,124,124,166.43924062499718,,,,,,,,166.42845666600624,166.43924062499718,166.43924062499718,166.69976129100542,166.73621529100637,167.92832016600005,168.04252333300246,167.95982091600308,None,,,,,,,,001,001,2025-05-30_14h25.35.459,N170,2024.2.4,None,2025-05-30 14h25.45.215186 -0400,
images/faces/male/Billy_Joel.jpg,original,face,125,125,0,None,,0,125,125,125,168.04252333300246,,,,,,,,168.03225845799898,168.04252333300246,168.04252333300246,168.25356087500404,168.3387442910025,169.2888894580101,169.44722504100355,169.37283350000507,None,,,,,,,,001,001,2025-05-30_14h25.35.459,N170,2024.2.4,None,2025-05-30 14h25.45.215186 -0400,
images/faces/male/John_Legend.jpg,original,face,126,126,0,None,,0,126,126,126,169.44722504100355,,,,,,,,169.43656545800332,169.44722504100355,169.44722504100355,169.6699517500092,169.7515498749999,170.51930304100097,170.68890487500175,170.58999958299682,None,,,,,,,,001,001,2025-05-30_14h25.35.459,N170,2024.2.4,None,2025-05-30 14h25.45.215186 -0400,
images/faces/female/Cecily_Strong.jpg,original,face,127,127,0,None,,0,127,127,127,170.68890487500175,,,,,,,,170.6802802910097,170.68890487500175,170.68890487500175,170.8834755410062,170.98875950000365,171.8347013330058,172.02074512500258,171.92504591601028,None,,,,,,,,001,001,2025-05-30_14h25.35.459,N170,2024.2.4,None,2025-05-30 14h25.45.215186 -0400,
images/faces/male/Michael_Che.jpg,original,face,128,128,0,None,,0,128,128,128,172.02074512500258,,,,,,,,172.0120606660057,172.02074512500258,172.02074512500258,172.21781245800958,172.31270595800015,173.3007475409977,173.46497566600738,173.38959950000572,None,,,,,,,,001,001,2025-05-30_14h25.35.459,N170,2024.2.4,None,2025-05-30 14h25.45.215186 -0400,
images/faces/female/Heidi_Klum.jpg,original,face,129,129,0,None,,0,129,129,129,173.46497566600738,,,,,,,,173.45577666600002,173.46497566600738,173.46497566600738,173.68689166600234,173.76535279100062,174.72842174999823,174.82613845799642,174.80328383299639,None,,,,,,,,001,001,2025-05-30_14h25.35.459,N170,2024.2.4,None,2025-05-30 14h25.45.215186 -0400,
images/objects/AALARMSY6.jpg,repeat,object,130,130,0,2,0.558504125001491,0,130,130,130,174.82613845799642,,,,,,,,174.81643600000825,174.82613845799642,174.82613845799642,175.10548683301022,175.130478416002,176.2658274580026,176.28067037501023,176.26600750000216,2,0.558504125001491,,,,,,,001,001,2025-05-30_14h25.35.459,N170,2024.2.4,None,2025-05-30 14h25.45.215186 -0400,
images/objects/8027086.thl.jpg,repeat,object,131,131,0,None,,0,131,131,131,176.28067037501023,,,,,,,,176.27113875000214,176.28067037501023,176.28067037501023,176.56463566599996,176.5766033330001,177.54296958300984,177.70707554100954,177.55494583300606,None,,,,,,,,001,001,2025-05-30_14h25.35.459,N170,2024.2.4,None,2025-05-30 14h25.45.215186 -0400,
images/faces/male/Dr_Phil.jpg,original,face,132,132,0,None,,0,132,132,132,177.70707554100954,,,,,,,,177.69840795799973,177.70707554100954,177.70707554100954,177.8494753749983,178.00838333299907,178.68760000000475,178.88332604100287,178.8432766659971,None,,,,,,,,001,001,2025-05-30_14h25.35.459,N170,2024.2.4,None,2025-05-30 14h25.45.215186 -0400,
images/objects/26468374.thl.jpg,original,object,133,133,0,None,,0,133,133,133,178.88332604100287,,,,,,,,178.87243450000824,178.88332604100287,178.88332604100287,179.14559333299985,179.1819142500026,180.20699795799737,180.25358616599988,180.22857875000045,None,,,,,,,,001,001,2025-05-30_14h25.35.459,N170,2024.2.4,None,2025-05-30 14h25.45.215186 -0400,
images/objects/8077486.thl.jpg,original,object,134,134,0,None,,0,134,134,134,180.25358616599988,,,,,,,,180.2432972079987,180.25358616599988,180.25358616599988,180.524596208008,180.54772625000624,181.34624387499935,181.38571062500705,181.3701575830055,None,,,,,,,,001,001,2025-05-30_14h25.35.459,N170,2024.2.4,None,2025-05-30 14h25.45.215186 -0400,
images/objects/ACOWBOYH3.jpg,repeat,object,135,135,0,2,0.913136332994327,0,135,135,135,181.38571062500705,,,,,,,,181.37607795800432,181.38571062500705,181.38571062500705,181.67268691600475,181.68411270799697,182.89405812500627,182.92543775000377,182.89424829100608,2,0.913136332994327,,,,,,,001,001,2025-05-30_14h25.35.459,N170,2024.2.4,None,2025-05-30 14h25.45.215186 -0400,
images/objects/babyseatback.jpg,original,object,136,136,0,None,,0,136,136,136,182.92543775000377,,,,,,,,182.91499725000176,182.92543775000377,182.92543775000377,183.19918658300594,183.2232717910083,184.39695720800955,184.58766012500564,184.40822866599774,None,,,,,,,,001,001,2025-05-30_14h25.35.459,N170,2024.2.4,None,2025-05-30 14h25.45.215186 -0400,
images/faces/male/Prince_William.jpg,original,face,137,137,0,None,,0,137,137,137,184.58766012500564,,,,,,,,184.57855250001012,184.58766012500564,184.58766012500564,184.70072537500528,184.8857436660037,185.90267745799792,186.10073854100483,186.0747903750016,None,,,,,,,,001,001,2025-05-30_14h25.35.459,N170,2024.2.4,None,2025-05-30 14h25.45.215186 -0400,
images/faces/female/Candy_Spelling.jpg,original,face,138,138,0,None,,0,138,138,138,186.10073854100483,,,,,,,,186.09187916600786,186.10073854100483,186.10073854100483,186.37782958299795,186.40001012499852,187.22196675000305,187.25327429099707,187.23372137499973,None,,,,,,,,001,001,2025-05-30_14h25.35.459,N170,2024.2.4,None,2025-05-30 14h25.45.215186 -0400,
images/objects/swingset.jpg,repeat,object,139,139,0,2,0.7129225000098813,0,139,139,139,187.25327429099707,,,,,,,,187.242474166007,187.25327429099707,187.25327429099707,187.53007516601065,187.55335208300676,188.61064979100775,188.63713008300692,188.6207910410012,2,0.7129225000098813,,,,,,,001,001,2025-05-30_14h25.35.459,N170,2024.2.4,None,2025-05-30 14h25.45.215186 -0400,
images/objects/Atoyball.jpg,repeat,object,140,140,0,2,0.611013792004087,0,140,140,140,188.63713008300692,,,,,,,,188.62635150000278,188.63713008300692,188.63713008300692,188.917512,188.93824725000013,190.0670324160019,190.1048280410032,190.07797154100263,2,0.611013792004087,,,,,,,001,001,2025-05-30_14h25.35.459,N170,2024.2.4,None,2025-05-30 14h25.45.215186 -0400,
images/faces/female/Meghan_Rapinoe.jpg,repeat,face,141,141,0,2,0.6040283329930389,0,141,141,141,190.1048280410032,,,,,,,,190.09481704099744,190.1048280410032,190.1048280410032,190.372542875004,190.40900516600232,191.43143750001036,191.51494891601033,191.45582229099819,2,0.6040283329930389,,,,,,,001,001,2025-05-30_14h25.35.459,N170,2024.2.4,None,2025-05-30 14h25.45.215186 -0400,
images/faces/female/Ellen_DeGeneres.jpg,original,face,142,142,0,None,,0,142,142,142,191.51494891601033,,,,,,,,191.50616516600712,191.51494891601033,191.51494891601033,191.74778995799716,191.8091203750082,192.83131329099706,192.9168852080038,192.88411104099941,None,,,,,,,,001,001,2025-05-30_14h25.35.459,N170,2024.2.4,None,2025-05-30 14h25.45.215186 -0400,
images/faces/male/Tom_Hardy.jpg,original,face,143,143,0,None,,0,143,143,143,192.9168852080038,,,,,,,,192.9063937500032,192.9168852080038,192.9168852080038,193.17713175000972,193.21312329100328,194.33712700000615,194.41697975000716,194.369736749999,None,,,,,,,,001,001,2025-05-30_14h25.35.459,N170,2024.2.4,None,2025-05-30 14h25.45.215186 -0400,
images/faces/male/Tucker_Carlson.jpg,original,face,144,144,0,None,,0,144,144,144,194.41697975000716,,,,,,,,194.4060493750003,194.41697975000716,194.41697975000716,194.66998750000494,194.71520420799789,195.81097541601048,195.9432821250084,195.84133550000843,None,,,,,,,,001,001,2025-05-30_14h25.35.459,N170,2024.2.4,None,2025-05-30 14h25.45.215186 -0400,
images/faces/female/Simone_Biles.jpg,original,face,145,145,0,None,,0,145,145,145,195.9432821250084,,,,,,,,195.93475720800052,195.9432821250084,195.9432821250084,196.13917049999873,196.24303875000624,197.22844483300287,197.36310687499645,197.32817000000796,None,,,,,,,,001,001,2025-05-30_14h25.35.459,N170,2024.2.4,None,2025-05-30 14h25.45.215186 -0400,
images/objects/23065398.thl.jpg,original,object,146,146,0,None,,0,146,146,146,197.36310687499645,,,,,,,,197.35229616600554,197.36310687499645,197.36310687499645,197.6232789580099,197.65946362500836,198.78726758300036,198.8545412500098,198.81903729100304,None,,,,,,,,001,001,2025-05-30_14h25.35.459,N170,2024.2.4,None,2025-05-30 14h25.45.215186 -0400,
images/faces/female/Beyonce.jpg,original,face,147,147,0,None,,0,147,147,147,198.8545412500098,,,,,,,,198.8460109160078,198.8545412500098,198.8545412500098,199.11836116600898,199.15195220800524,200.1144755830028,200.16455379100807,200.1383579579997,None,,,,,,,,001,001,2025-05-30_14h25.35.459,N170,2024.2.4,None,2025-05-30 14h25.45.215186 -0400,
images/objects/23041782.thl.jpg,original,object,148,148,0,None,,0,148,148,148,200.16455379100807,,,,,,,,200.15367291599978,200.16455379100807,200.16455379100807,200.43753162500798,200.461493625,201.52586095800507,201.58429362499737,201.5369219580025,None,,,,,,,,001,001,2025-05-30_14h25.35.459,N170,2024.2.4,None,2025-05-30 14h25.45.215186 -0400,
images/faces/male/Tom_Brady.jpg,original,face,149,149,0,None,,0,149,149,149,201.58429362499737,,,,,,,,201.57339016599872,201.58429362499737,201.58429362499737,201.83505687500292,201.8791331250104,203.0552586660051,203.13725383300334,203.1017859160056,None,,,,,,,,001,001,2025-05-30_14h25.35.459,N170,2024.2.4,None,2025-05-30 14h25.45.215186 -0400,
images/objects/Abowl74.jpg,original,object,150,150,0,None,,0,150,150,150,203.13725383300334,,,,,,,,203.12706475000596,203.13725383300334,203.13725383300334,203.40541083300195,203.43696200000704,204.4830970000039,204.53642375000345,204.50516016600886,None,,,,,,,,001,001,2025-05-30_14h25.35.459,N170,2024.2.4,None,2025-05-30 14h25.45.215186 -0400,
images/objects/Aoilcan11.jpg,original,object,151,151,0,2,0.6231352920003701,0,151,151,151,204.53642375000345,,,,,,,,204.52574479099712,204.53642375000345,204.53642375000345,204.80335541600653,204.83875729099964,205.68443691600987,205.73712316600722,205.70818408300693,2,0.6231352920003701,,,,,,,001,001,2025-05-30_14h25.35.459,N170,2024.2.4,None,2025-05-30 14h25.45.215186 -0400,
images/faces/female/Nikki_De_Jager.jpg,original,face,152,152,0,2,0.7535473750031088,0,152,152,152,205.73712316600722,,,,,,,,205.727467040997,205.73712316600722,205.73712316600722,206.01010516600218,206.03315850000945,207.19013220800844,207.22987012499652,207.20149641600437,2,0.7535473750031088,,,,,,,001,001,2025-05-30_14h25.35.459,N170,2024.2.4,None,2025-05-30 14h25.45.215186 -0400,
images/faces/female/Rachel_McAdams.jpg,original,face,153,153,0,None,,0,153,153,153,207.22987012499652,,,,,,,,207.22003949999635,207.22987012499652,207.22987012499652,207.4979616250057,207.53101037500892,208.25536345799628,208.29575645799923,208.27855829100008,None,,,,,,,,001,001,2025-05-30_14h25.35.459,N170,2024.2.4,None,2025-05-30 14h25.45.215186 -0400,
images/objects/23028486.thl.jpg,original,object,154,154,0,2,0.6538817090040538,0,154,154,154,208.29575645799923,,,,,,,,208.2861864160077,208.29575645799923,208.29575645799923,208.58086312499654,208.592121958005,209.4670377910079,209.48363166600757,209.46721487501054,2,0.6538817090040538,,,,,,,001,001,2025-05-30_14h25.35.459,N170,2024.2.4,None,2025-05-30 14h25.45.215186 -0400,
images/objects/26432217.thl.jpg,repeat,object,155,155,0,2,0.6464163749915315,0,155,155,155,209.48363166600757,,,,,,,,209.4727374159993,209.48363166600757,209.48363166600757,209.76689708299818,209.77729754100437,210.87946337500762,210.93582675000653,210.89173604099778,2,0.6464163749915315,,,,,,,001,001,2025-05-30_14h25.35.459,N170,2024.2.4,None,2025-05-30 14h25.45.215186 -0400,
images/faces/female/Carly_Rae_Jepsen.jpg,original,face,156,156,0,None,,0,156,156,156,210.93582675000653,,,,,,,,210.9260330410034,210.93582675000653,210.93582675000653,211.19733479100978,211.2355563750025,212.3244947080093,212.3770304159989,212.34809787500126,None,,,,,,,,001,001,2025-05-30_14h25.35.459,N170,2024.2.4,None,2025-05-30 14h25.45.215186 -0400,
images/faces/male/Paul_Dano.jpg,original,face,157,157,0,None,,0,157,157,157,212.3770304159989,,,,,,,,212.36624012500397,212.3770304159989,212.3770304159989,212.64722212500055,212.68306925000797,213.86452245801047,213.90189700000337,213.8762346660078,None,,,,,,,,001,001,2025-05-30_14h25.35.459,N170,2024.2.4,None,2025-05-30 14h25.45.215186 -0400,
images/objects/26378596.thl.jpg,original,object,158,158,0,2,0.5995425830042223,0,158,158,158,213.90189700000337,,,,,,,,213.8919935830054,213.90189700000337,213.90189700000337,214.17417891600053,214.19777862500632,215.0086319999973,215.11259450000944,215.030774208004,2,0.5995425830042223,,,,,,,001,001,2025-05-30_14h25.35.459,N170,2024.2.4,None,2025-05-30 14h25.45.215186 -0400,
images/faces/male/Leonardo_DiCaprio.jpg,original,face,159,159,0,2,0.6034957499941811,0,159,159,159,215.11259450000944,,,,,,,,215.10343162500067,215.11259450000944,215.11259450000944,215.32685283300816,215.40885870800412,216.4199296250008,216.54866020800546,216.4975803749985,2,0.6034957499941811,,,,,,,001,001,2025-05-30_14h25.35.459,N170,2024.2.4,None,2025-05-30 14h25.45.215186 -0400,
images/faces/female/Michelle_Dockery.jpg,original,face,160,160,0,None,,0,160,160,160,216.54866020800546,,,,,,,,216.53808408300392,216.54866020800546,216.54866020800546,216.7930506249977,216.84310116599954,217.76661533300648,217.84574870800134,217.81300258300325,None,,,,,,,,001,001,2025-05-30_14h25.35.459,N170,2024.2.4,None,2025-05-30 14h25.45.215186 -0400,
images/objects/Amilkcrate2.jpg,original,object,161,161,0,None,,0,161,161,161,217.84574870800134,,,,,,,,217.83462212501036,217.84574870800134,217.84574870800134,218.10908216600365,218.14510387500923,218.94408279100026,218.99087012500968,218.9743678750092,None,,,,,,,,001,001,2025-05-30_14h25.35.459,N170,2024.2.4,None,2025-05-30 14h25.45.215186 -0400,
images/objects/26425322.thl.jpg,original,object,162,162,0,2,0.6389644160080934,0,162,162,162,218.99087012500968,,,,,,,,218.97978716599755,218.99087012500968,218.99087012500968,219.26953270800004,219.29305074999866,220.2276867909968,220.28195658299956,220.2394585830043,2,0.6389644160080934,,,,,,,001,001,2025-05-30_14h25.35.459,N170,2024.2.4,None,2025-05-30 14h25.45.215186 -0400,
images/faces/male/John_Grisham.jpg,original,face,163,163,0,None,,0,163,163,163,220.28195658299956,,,,,,,,220.2711423330038,220.28195658299956,220.28195658299956,220.53479354101,220.58288308299961,221.7459166250046,221.81201612499717,221.78578933300741,None,,,,,,,,001,001,2025-05-30_14h25.35.459,N170,2024.2.4,None,2025-05-30 14h25.45.215186 -0400,
images/objects/ABROCHETT.jpg,original,object,164,164,0,None,,0,164,164,164,221.81201612499717,,,,,,,,221.80159750000166,221.81201612499717,221.81201612499717,222.08390116599912,222.10785245800798,223.1063549160026,223.15974545800418,223.1304732080025,None,,,,,,,,001,001,2025-05-30_14h25.35.459,N170,2024.2.4,None,2025-05-30 14h25.45.215186 -0400,
images/faces/female/Julie_Sarinana.jpg,original,face,165,165,0,2,0.6750954580056714,0,165,165,165,223.15974545800418,,,,,,,,223.14906875000452,223.15974545800418,223.15974545800418,223.43466904100205,223.45883416599827,224.6677936250053,224.70294595800806,224.6789066659985,2,0.6750954580056714,,,,,,,001,001,2025-05-30_14h25.35.459,N170,2024.2.4,None,2025-05-30 14h25.45.215186 -0400,
images/objects/26437080.thl.jpg,original,object,166,166,0,None,,0,166,166,166,224.70294595800806,,,,,,,,224.69274720799876,224.70294595800806,224.70294595800806,224.98258433300362,225.00458249999792,225.87202545799664,225.91322420800861,225.88218483299715,None,,,,,,,,001,001,2025-05-30_14h25.35.459,N170,2024.2.4,None,2025-05-30 14h25.45.215186 -0400,
images/objects/heartchocolat.jpg,original,object,167,167,0,None,,0,167,167,167,225.91322420800861,,,,,,,,225.9021754580026,225.91322420800861,225.91322420800861,226.18669766600942,226.2119173329993,227.3674511249992,227.3960238330037,227.3793991249986,None,,,,,,,,001,001,2025-05-30_14h25.35.459,N170,2024.2.4,None,2025-05-30 14h25.45.215186 -0400,
images/objects/heartchocolat.jpg,repeat,object,168,168,0,2,0.6277387919981265,0,168,168,168,227.3960238330037,,,,,,,,227.38511149999977,227.3960238330037,227.3960238330037,227.68202812499658,227.69360508299724,228.77236745800474,228.79638437500398,228.77256241600844,2,0.6277387919981265,,,,,,,001,001,2025-05-30_14h25.35.459,N170,2024.2.4,None,2025-05-30 14h25.45.215186 -0400,
images/objects/26440261.thl.jpg,original,object,169,169,0,None,,0,169,169,169,228.79638437500398,,,,,,,,228.78612487499777,228.79638437500398,228.79638437500398,229.06736749999982,229.09182083299675,230.13061633300094,230.17912279099983,230.14304945799813,None,,,,,,,,001,001,2025-05-30_14h25.35.459,N170,2024.2.4,None,2025-05-30 14h25.45.215186 -0400,
images/objects/funlamp.jpg,original,object,170,170,0,None,,0,170,170,170,230.17912279099983,,,,,,,,230.16813466600433,230.17912279099983,230.17912279099983,230.44236766600807,230.47520929100574,231.3036767080048,231.40936841600342,231.3272802910069,None,,,,,,,,001,001,2025-05-30_14h25.35.459,N170,2024.2.4,None,2025-05-30 14h25.45.215186 -0400,
images/faces/male/Bryan_Cranston.jpg,original,face,171,171,0,None,,0,171,171,171,231.40936841600342,,,,,,,,231.40073691600992,231.40936841600342,231.40936841600342,231.6289767910057,231.70713379100198,232.54572791600367,232.66891991600278,232.61751920799725,None,,,,,,,,001,001,2025-05-30_14h25.35.459,N170,2024.2.4,None,2025-05-30 14h25.45.215186 -0400,
images/faces/male/Sanjay_Gupta.jpg,original,face,172,172,0,None,,0,172,172,172,232.66891991600278,,,,,,,,232.6581155830063,232.66891991600278,232.66891991600278,232.91626908299804,232.96319850000145,233.7890575830097,233.87010820800788,233.82491350000782,None,,,,,,,,001,001,2025-05-30_14h25.35.459,N170,2024.2.4,None,2025-05-30 14h25.45.215186 -0400,
images/faces/female/Hillary_Duff.jpg,original,face,173,173,0,2,0.5881189580104547,0,173,173,173,233.87010820800788,,,,,,,,233.86028970799816,233.87010820800788,233.87010820800788,234.12361520800914,234.17115016600292,235.26271416600503,235.31912808300694,235.29558837499644,2,0.5881189580104547,,,,,,,001,001,2025-05-30_14h25.35.459,N170,2024.2.4,None,2025-05-30 14h25.45.215186 -0400,
images/objects/DSCN3767-sm.jpg,original,object,174,174,0,None,,0,174,174,174,235.31912808300694,,,,,,,,235.30901495800936,235.31912808300694,235.31912808300694,235.59042866600794,235.6135628750053,236.68763033300638,236.73207970800286,236.70038254100655,None,,,,,,,,001,001,2025-05-30_14h25.35.459,N170,2024.2.4,None,2025-05-30 14h25.45.215186 -0400,
images/objects/tricycle.jpg,original,object,175,175,0,None,,0,175,175,175,236.73207970800286,,,,,,,,236.72127804100455,236.73207970800286,236.73207970800286,236.9966209999984,237.03220133300056,237.8481862500048,237.90173791600682,237.87143095801002,None,,,,,,,,001,001,2025-05-30_14h25.35.459,N170,2024.2.4,None,2025-05-30 14h25.45.215186 -0400,
images/faces/female/Hillary_Duff.jpg,repeat,face,176,176,0,2,0.5104399999981979,0,176,176,176,237.90173791600682,,,,,,,,237.89092883300327,237.90173791600682,237.90173791600682,238.17497370800993,238.19802774999698,239.05568808299722,239.09548450000875,239.06741516600596,2,0.5104399999981979,,,,,,,001,001,2025-05-30_14h25.35.459,N170,2024.2.4,None,2025-05-30 14h25.45.215186 -0400,
images/objects/22856784.thl.jpg,original,object,177,177,0,None,,0,177,177,177,239.09548450000875,,,,,,,,239.0848423330026,239.09548450000875,239.09548450000875,239.3661021660082,239.3916530830029,240.56823762500426,240.6326867500029,240.57936333300313,None,,,,,,,,001,001,2025-05-30_14h25.35.459,N170,2024.2.4,None,2025-05-30 14h25.45.215186 -0400,
images/faces/male/Lionel_Messi.jpg,original,face,178,178,0,None,,0,178,178,178,240.6326867500029,,,,,,,,240.62199949999922,240.6326867500029,240.6326867500029,240.8784317910031,240.93809529099963,241.69351833300607,241.8502507910016,241.7393753750075,None,,,,,,,,001,001,2025-05-30_14h25.35.459,N170,2024.2.4,None,2025-05-30 14h25.45.215186 -0400,
images/faces/female/Mary_Barra.jpg,original,face,179,179,0,None,,0,179,179,179,241.8502507910016,,,,,,,,241.84166591599933,241.8502507910016,241.8502507910016,242.0369656660041,242.14849624999624,243.07588058299734,243.22253245800675,243.17552033301035,None,,,,,,,,001,001,2025-05-30_14h25.35.459,N170,2024.2.4,None,2025-05-30 14h25.45.215186 -0400,
images/faces/male/Max_Verstappen.jpg,original,face,180,180,0,None,,0,180,180,180,243.22253245800675,,,,,,,,243.21183608300635,243.22253245800675,243.22253245800675,243.47902620800596,243.5280818750034,244.54692700000305,244.60522979100642,244.58386054100993,None,,,,,,,,001,001,2025-05-30_14h25.35.459,N170,2024.2.4,None,2025-05-30 14h25.45.215186 -0400,
images/objects/8245419.thl.jpg,original,object,181,181,0,None,,0,181,181,181,244.60522979100642,,,,,,,,244.59435087500606,244.60522979100642,244.60522979100642,244.88948658300797,244.90209708300245,245.9347385410074,245.97608112500166,245.9467260829988,None,,,,,,,,001,001,2025-05-30_14h25.35.459,N170,2024.2.4,None,2025-05-30 14h25.45.215186 -0400,
images/faces/female/Margaret_Atwood.jpg,original,face,182,182,0,None,,0,182,182,182,245.97608112500166,,,,,,,,245.9653939580021,245.97608112500166,245.97608112500166,246.25183133300743,246.27554608300852,247.39460791600868,247.42719391600986,247.4070724159974,None,,,,,,,,001,001,2025-05-30_14h25.35.459,N170,2024.2.4,None,2025-05-30 14h25.45.215186 -0400,
images/faces/female/Nora_Roberts.jpg,original,face,183,183,0,2,0.7602764170005685,0,183,183,183,247.42719391600986,,,,,,,,247.4168901660014,247.42719391600986,247.42719391600986,247.7028834579978,247.72596583300037,248.69152170800953,248.72259708300408,248.70245666599658,2,0.7602764170005685,,,,,,,001,001,2025-05-30_14h25.35.459,N170,2024.2.4,None,2025-05-30 14h25.45.215186 -0400,
images/objects/22925624.thl.jpg,original,object,184,184,0,None,,0,184,184,184,248.72259708300408,,,,,,,,248.7136476660089,248.72259708300408,248.72259708300408,248.9985427500069,249.01480183300737,250.15992758300854,250.1994790410099,250.18222450000758,None,,,,,,,,001,001,2025-05-30_14h25.35.459,N170,2024.2.4,None,2025-05-30 14h25.45.215186 -0400,
images/objects/AANTHAT2.jpg,original,object,185,185,0,None,,0,185,185,185,250.1994790410099,,,,,,,,250.18906216599862,250.1994790410099,250.1994790410099,250.47905070800334,250.50162633300351,251.68737666599918,251.72707720800827,251.69857683300506,None,,,,,,,,001,001,2025-05-30_14h25.35.459,N170,2024.2.4,None,2025-05-30 14h25.45.215186 -0400,
images/objects/ACANOL.jpg,original,object,186,186,0,2,0.692461208003806,0,186,186,186,251.72707720800827,,,,,,,,251.7168679160095,251.72707720800827,251.72707720800827,251.99716741600423,252.02239154100243,252.89751858300588,252.93491062500107,252.9202628750063,2,0.692461208003806,,,,,,,001,001,2025-05-30_14h25.35.459,N170,2024.2.4,None,2025-05-30 14h25.45.215186 -0400,
images/objects/26425322.thl.jpg,repeat,object,187,187,0,2,0.5905714169930434,0,187,187,187,252.93491062500107,,,,,,,,252.92422312501003,252.93491062500107,252.93491062500107,253.21683483300149,253.23989358299877,254.15516512500471,254.18339691600704,254.1553377500095,2,0.5905714169930434,,,,,,,001,001,2025-05-30_14h25.35.459,N170,2024.2.4,None,2025-05-30 14h25.45.215186 -0400,
images/faces/male/George_Clooney.jpg,repeat,face,188,188,0,None,,0,188,188,188,254.18339691600704,,,,,,,,254.1733732499997,254.18339691600704,254.18339691600704,254.45994554100616,254.48391375000938,255.48627095800475,255.53005262500665,255.49732966600277,None,,,,,,,,001,001,2025-05-30_14h25.35.459,N170,2024.2.4,None,2025-05-30 14h25.45.215186 -0400,
images/objects/Abottleopener.jpg,original,object,189,189,0,None,,0,189,189,189,255.53005262500665,,,,,,,,255.5200806250068,255.53005262500665,255.53005262500665,255.79967008299718,255.8325871660054,256.9224607500073,256.97699029100477,256.94553233300394,None,,,,,,,,001,001,2025-05-30_14h25.35.459,N170,2024.2.4,None,2025-05-30 14h25.45.215186 -0400,
images/objects/Aflower136.jpg,original,object,190,190,0,None,,0,190,190,190,256.97699029100477,,,,,,,,256.9670603330014,256.97699029100477,256.97699029100477,257.2497623750096,257.2733083330095,258.4103831250104,258.440180125006,258.42217745800735,None,,,,,,,,001,001,2025-05-30_14h25.35.459,N170,2024.2.4,None,2025-05-30 14h25.45.215186 -0400,
images/objects/jumpmattress.jpg,original,object,191,191,0,2,0.7665324169938685,0,191,191,191,258.440180125006,,,,,,,,258.42934916600643,258.440180125006,258.440180125006,258.7260771660076,258.7375499159971,259.5202850830101,259.54472783301026,259.5204681250034,2,0.7665324169938685,,,,,,,001,001,2025-05-30_14h25.35.459,N170,2024.2.4,None,2025-05-30 14h25.45.215186 -0400,
images/objects/fireking-file-cabinet.jpg,original,object,192,192,0,None,,0,192,192,192,259.54472783301026,,,,,,,,259.5339257910091,259.54472783301026,259.54472783301026,259.82320349999645,259.84790504100965,260.61007112500374,260.66726170800393,260.6203202500037,None,,,,,,,,001,001,2025-05-30_14h25.35.459,N170,2024.2.4,None,2025-05-30 14h25.45.215186 -0400,
images/faces/male/Spike_Lee.jpg,original,face,193,193,0,None,,0,193,193,193,260.66726170800393,,,,,,,,260.6565384160058,260.66726170800393,260.66726170800393,260.9258368330047,260.97125141600554,261.7113970830105,261.8196774579992,261.7446659999987,None,,,,,,,,001,001,2025-05-30_14h25.35.459,N170,2024.2.4,None,2025-05-30 14h25.45.215186 -0400,
images/faces/male/Caleb_Dressel.jpg,original,face,194,194,0,None,,0,194,194,194,261.8196774579992,,,,,,,,261.8092335410038,261.8196774579992,261.8196774579992,262.0398930000083,262.1221466660063,262.8452184580092,262.93431962499744,262.9123382079997,None,,,,,,,,001,001,2025-05-30_14h25.35.459,N170,2024.2.4,None,2025-05-30 14h25.45.215186 -0400,
images/objects/26424075.thl.jpg,original,object,195,195,0,None,,0,195,195,195,262.93431962499744,,,,,,,,262.92448016600974,262.93431962499744,262.93431962499744,263.2133876250009,263.23983558300824,263.9751145830087,264.0291701660026,263.9974524999998,None,,,,,,,,001,001,2025-05-30_14h25.35.459,N170,2024.2.4,None,2025-05-30 14h25.45.215186 -0400,
images/objects/saltpeppershakerjpg.jpg,original,object,196,196,0,None,,0,196,196,196,264.0291701660026,,,,,,,,264.01766404100636,264.0291701660026,264.0291701660026,264.291653207998,264.32855408299656,265.2922610829992,265.3558940410003,265.3244785410061,None,,,,,,,,001,001,2025-05-30_14h25.35.459,N170,2024.2.4,None,2025-05-30 14h25.45.215186 -0400,
images/objects/Atoyfiretru11.jpg,original,object,197,197,0,None,,0,197,197,197,265.3558940410003,,,,,,,,265.34532137500355,265.3558940410003,265.3558940410003,265.61952358300914,265.6537614580011,266.8119757910026,266.85805895800877,266.8342224579974,None,,,,,,,,001,001,2025-05-30_14h25.35.459,N170,2024.2.4,None,2025-05-30 14h25.45.215186 -0400,
images/objects/AARMCHA25.jpg,original,object,198,198,0,None,,0,198,198,198,266.85805895800877,,,,,,,,266.8478387500072,266.85805895800877,266.85805895800877,267.12963654100895,267.15355237500626,268.2521212910069,268.2997560000076,268.27468604099704,None,,,,,,,,001,001,2025-05-30_14h25.35.459,N170,2024.2.4,None,2025-05-30 14h25.45.215186 -0400,
images/faces/male/Tom_Hardy.jpg,repeat,face,199,199,0,2,0.5591332500043791,0,199,199,199,268.2997560000076,,,,,,,,268.28977183300594,268.2997560000076,268.2997560000076,268.58042833300715,268.60325675000786,269.7966627499991,269.82756970800983,269.79686583300645,2,0.5591332500043791,,,,,,,001,001,2025-05-30_14h25.35.459,N170,2024.2.4,None,2025-05-30 14h25.45.215186 -0400,
images/objects/ATOWRACK3.jpg,original,object,200,200,0,None,,0,200,200,200,269.82756970800983,,,,,,,,269.8165901660104,269.82756970800983,269.82756970800983,270.0988196249964,270.1229093330039,271.00521854100225,271.0403205409966,271.0259882500104,None,,,,,,,,001,001,2025-05-30_14h25.35.459,N170,2024.2.4,None,2025-05-30 14h25.45.215186 -0400,
images/objects/23051010.thl.jpg,repeat,object,201,201,0,None,,0,201,201,201,271.0403205409966,,,,,,,,271.03061237500515,271.0403205409966,271.0403205409966,271.3184217079979,271.342326375001,272.5015865410096,272.5361754159967,272.5123688330059,None,,,,,,,,001,001,2025-05-30_14h25.35.459,N170,2024.2.4,None,2025-05-30 14h25.45.215186 -0400,
images/objects/ACENTRIF5.jpg,original,object,202,202,0,None,,0,202,202,202,272.5361754159967,,,,,,,,272.5257413329964,272.5361754159967,272.5361754159967,272.8176574579993,272.84168670800864,273.8293511660013,273.8698679579975,273.8424176660046,None,,,,,,,,001,001,2025-05-30_14h25.35.459,N170,2024.2.4,None,2025-05-30 14h25.45.215186 -0400,
images/objects/26387436.thl.jpg,original,object,203,203,0,None,,0,203,203,203,273.8698679579975,,,,,,,,273.85899341599725,273.8698679579975,273.8698679579975,274.14352216600673,274.1638482910057,274.9406427080103,275.02578841600916,274.9644709580025,None,,,,,,,,001,001,2025-05-30_14h25.35.459,N170,2024.2.4,None,2025-05-30 14h25.45.215186 -0400,
images/faces/male/Paul_Rudd.jpg,original,face,204,204,0,2,0.5799853749922477,0,204,204,204,275.02578841600916,,,,,,,,275.01520279100805,275.02578841600916,275.02578841600916,275.2585742079973,275.3293177910091,276.09451695800817,276.17924745799974,276.1499088749988,2,0.5799853749922477,,,,,,,001,001,2025-05-30_14h25.35.459,N170,2024.2.4,None,2025-05-30 14h25.45.215186 -0400,
images/objects/26424973.thl.jpg,original,object,205,205,0,None,,0,205,205,205,276.17924745799974,,,,,,,,276.16796637499647,276.17924745799974,276.17924745799974,276.4445125830098,276.47834225000406,277.2630921250093,277.31636154100124,277.2871248330048,None,,,,,,,,001,001,2025-05-30_14h25.35.459,N170,2024.2.4,None,2025-05-30 14h25.45.215186 -0400,
images/faces/male/Donald_Glover.jpg,original,face,206,206,0,2,0.5277736249990994,0,206,206,206,277.31636154100124,,,,,,,,277.30670575000113,277.31636154100124,277.31636154100124,277.5834892499988,277.61927650000143,278.5340067500074,278.5896193750086,278.5569347910059,2,0.5277736249990994,,,,,,,001,001,2025-05-30_14h25.35.459,N170,2024.2.4,None,2025-05-30 14h25.45.215186 -0400,
images/faces/female/Scarlett_Johansson.jpg,original,face,207,207,0,2,0.6318762090086238,0,207,207,207,278.5896193750086,,,,,,,,278.57882479100954,278.5896193750086,278.5896193750086,278.8506281660084,278.8947445829981,280.01201454100374,280.06566445800127,280.04539212500094,2,0.6318762090086238,,,,,,,001,001,2025-05-30_14h25.35.459,N170,2024.2.4,None,2025-05-30 14h25.45.215186 -0400,
images/objects/26684634.thl.jpg,original,object,208,208,0,None,,0,208,208,208,280.06566445800127,,,,,,,,280.0550195410033,280.06566445800127,280.06566445800127,280.3497718330036,280.3621601250052,281.37054625000746,281.4061263330077,281.3794862909999,None,,,,,,,,001,001,2025-05-30_14h25.35.459,N170,2024.2.4,None,2025-05-30 14h25.45.215186 -0400,
images/objects/AAIRPORTC.jpg,original,object,209,209,0,None,,0,209,209,209,281.4061263330077,,,,,,,,281.39561220799806,281.4061263330077,281.4061263330077,281.6728803750011,281.7017753330001,282.8555901660002,282.9638629580004,282.8790302499983,None,,,,,,,,001,001,2025-05-30_14h25.35.459,N170,2024.2.4,None,2025-05-30 14h25.45.215186 -0400,
images/faces/female/Billie_Eilish.jpg,original,face,210,210,0,None,,0,210,210,210,282.9638629580004,,,,,,,,282.95512991600845,282.9638629580004,282.9638629580004,283.17232479099766,283.2592322910059,284.0439087499981,284.1633913330006,284.13020441599656,None,,,,,,,,001,001,2025-05-30_14h25.35.459,N170,2024.2.4,None,2025-05-30 14h25.45.215186 -0400,
images/faces/female/Jennifer_Lopez.jpg,original,face,211,211,0,None,,0,211,211,211,284.1633913330006,,,,,,,,284.1531159580045,284.1633913330006,284.1633913330006,284.4323846250045,284.46890533300757,285.2465306660015,285.32860283300397,285.2693394579983,None,,,,,,,,001,001,2025-05-30_14h25.35.459,N170,2024.2.4,None,2025-05-30 14h25.45.215186 -0400,
images/faces/female/Beyonce.jpg,repeat,face,212,212,0,2,0.6306733330129646,0,212,212,212,285.32860283300397,,,,,,,,285.31812300000456,285.32860283300397,285.32860283300397,285.5627322500077,285.6203181250021,286.3802484580083,286.47509966600046,286.42922550000367,2,0.6306733330129646,,,,,,,001,001,2025-05-30_14h25.35.459,N170,2024.2.4,None,2025-05-30 14h25.45.215186 -0400,
images/faces/male/Mitch_McConnell.jpg,original,face,213,213,0,None,,0,213,213,213,286.47509966600046,,,,,,,,286.4643529160094,286.47509966600046,286.47509966600046,286.7314657079987,286.77765912500035,287.635329458004,287.71270879100484,287.6691399160045,None,,,,,,,,001,001,2025-05-30_14h25.35.459,N170,2024.2.4,None,2025-05-30 14h25.45.215186 -0400,
images/faces/female/Vanessa_Hudgens.jpg,original,face,214,214,0,2,0.7070094160008011,0,214,214,214,287.71270879100484,,,,,,,,287.70231295800477,287.71270879100484,287.71270879100484,287.97570000000997,288.0104460410075,288.7495380830078,288.80394591600634,288.7719436250045,2,0.7070094160008011,,,,,,,001,001,2025-05-30_14h25.35.459,N170,2024.2.4,None,2025-05-30 14h25.45.215186 -0400,
images/objects/ACDRAINER.jpg,original,object,215,215,0,None,,0,215,215,215,288.80394591600634,,,,,,,,288.79386529100884,288.80394591600634,288.80394591600634,289.0780322500068,289.10119345800194,290.02428370800044,290.15095579100307,290.0484424160095,None,,,,,,,,001,001,2025-05-30_14h25.35.459,N170,2024.2.4,None,2025-05-30 14h25.45.215186 -0400,
images/faces/male/David_Schwimmer.jpg,original,face,216,216,0,2,0.5458704159973422,0,216,216,216,290.15095579100307,,,,,,,,290.1423317910085,290.15095579100307,290.15095579100307,290.3476209579967,290.4452966250101,291.3014721250074,291.47384187500575,291.3916039580072,2,0.5458704159973422,,,,,,,001,001,2025-05-30_14h25.35.459,N170,2024.2.4,None,2025-05-30 14h25.45.215186 -0400,
images/faces/male/Prince_Harry.jpg,repeat,face,217,217,0,2,0.6294278749992372,0,217,217,217,291.47384187500575,,,,,,,,291.4651703330019,291.47384187500575,291.47384187500575,291.68951604100585,291.77539562500897,292.7092370830069,292.8312206249975,292.7903585830063,2,0.6294278749992372,,,,,,,001,001,2025-05-30_14h25.35.459,N170,2024.2.4,None,2025-05-30 14h25.45.215186 -0400,
images/objects/retainertheeth.jpg,original,object,218,218,0,None,,0,218,218,218,292.8312206249975,,,,,,,,292.82119741600764,292.8312206249975,292.8312206249975,293.08893662500486,293.12666279100813,293.92387312500796,294.00873020800645,293.95953337500396,None,,,,,,,,001,001,2025-05-30_14h25.35.459,N170,2024.2.4,None,2025-05-30 14h25.45.215186 -0400,
images/faces/male/Eddie_Redmayne.jpg,original,face,219,219,0,None,,0,219,219,219,294.00873020800645,,,,,,,,293.9977510000026,294.00873020800645,294.00873020800645,294.25981258299726,294.3082878330024,295.224002707997,295.26920254100696,295.2579847080051,None,,,,,,,,001,001,2025-05-30_14h25.35.459,N170,2024.2.4,None,2025-05-30 14h25.45.215186 -0400,
,,,,,,,,,,,,,,,,,,,,,,,,,,,,,,295.25816812500125,295.26920254100696,295.26920254100696,296.17910624999786,2,0.9097744169994257,001,001,2025-05-30_14h25.35.459,N170,2024.2.4,None,2025-05-30 14h25.45.215186 -0400,
